timestamp,ax,ay,az,gx,gy,gz,mx,my,mz
0.0,-0.004,0.26,0.985,-0.061,0.305,0.366,-29.6,25.62,-54.5
0.004033565521240234,-0.004,0.261,0.984,0.549,0.427,0.305,-29.6,25.62,-54.5
0.004033565521240234,-0.004,0.261,0.984,0.549,0.427,0.305,-29.1,25.1,-54.85
0.004033565521240234,-0.005,0.262,0.983,1.099,0.366,0.305,-29.51,25.33,-54.94
0.004033565521240234,-0.005,0.262,0.983,1.099,0.366,0.305,-29.51,25.48,-54.81
0.004033565521240234,-0.005,0.261,0.983,1.465,0.366,0.305,-29.87,25.62,-54.98
0.004033565521240234,-0.005,0.261,0.983,1.465,0.366,0.305,-29.87,25.62,-54.98
0.008115053176879883,-0.005,0.26,0.982,1.404,0.366,0.305,-30.33,25.2,-55.52
0.008115053176879883,-0.005,0.26,0.982,0.916,0.488,0.305,-29.79,25.24,-55.06
0.008115053176879883,-0.005,0.26,0.982,0.916,0.488,0.305,-29.86,25.15,-55.58
0.21137189865112305,-0.005,0.261,0.982,0.061,0.366,0.305,-30.21,24.77,-55.69
0.21137189865112305,-0.005,0.261,0.982,0.061,0.366,0.305,-29.41,25.12,-55.26
0.21245288848876953,-0.005,0.261,0.983,-0.61,0.366,0.366,-29.63,25.14,-55.1
0.2134864330291748,-0.005,0.261,0.983,-0.61,0.366,0.366,-29.63,25.14,-55.1
0.2134864330291748,-0.004,0.261,0.983,-1.16,0.305,0.366,-29.6,25.07,-55.32
0.2144467830657959,-0.004,0.26,0.984,-1.221,0.366,0.305,-29.76,25.18,-55.13
0.2144467830657959,-0.004,0.26,0.984,-1.221,0.366,0.305,-29.73,25.43,-55.19
0.2155148983001709,-0.004,0.26,0.984,-0.977,0.305,0.366,-29.85,25.07,-55.54
0.21651554107666016,-0.004,0.26,0.984,-0.977,0.305,0.366,-29.85,25.07,-55.54
0.21651554107666016,-0.005,0.261,0.985,-0.122,0.305,0.305,-29.51,25.07,-55.38
0.2757589817047119,-0.005,0.261,0.985,-0.122,0.305,0.305,-29.99,25.4,-54.55
0.27683162689208984,-0.005,0.26,0.985,0.366,0.366,0.305,-29.57,25.71,-54.74
0.2772238254547119,-0.004,0.261,0.984,0.916,0.305,0.305,-29.48,25.2,-55.17
0.2772238254547119,-0.004,0.261,0.984,0.916,0.305,0.305,-29.1,24.85,-55.07
0.2772238254547119,-0.004,0.26,0.984,0.977,0.427,0.305,-29.55,25.08,-55.85
0.2772238254547119,-0.004,0.26,0.984,0.977,0.427,0.305,-29.55,25.08,-55.85
0.2772238254547119,-0.004,0.26,0.983,0.977,0.427,0.305,-29.09,25.11,-55.42
0.280534029006958,-0.004,0.26,0.983,0.977,0.427,0.305,-29.6,25.3,-55.04
0.280534029006958,-0.004,0.261,0.983,0.671,0.366,0.305,-29.45,25.29,-54.98
0.280534029006958,-0.005,0.262,0.983,0.488,0.305,0.366,-29.54,25.31,-54.75
0.3384718894958496,-0.005,0.262,0.983,0.488,0.305,0.366,-29.54,25.31,-54.75
0.3384718894958496,-0.005,0.262,0.984,-0.061,0.366,0.305,-29.89,25.42,-54.46
0.3394908905029297,-0.005,0.262,0.984,-0.061,0.366,0.305,-29.58,25.23,-55.2
0.3401782512664795,-0.005,0.261,0.983,-0.061,0.305,0.366,-29.47,25.26,-54.76
0.34061717987060547,-0.005,0.261,0.983,-0.061,0.305,0.366,-29.67,25.59,-54.63
0.34061717987060547,-0.004,0.261,0.982,-0.122,0.366,0.366,-29.7,25.21,-54.76
0.34195804595947266,-0.005,0.262,0.983,-0.244,0.366,0.366,-30.15,25.01,-55.14
0.34195804595947266,-0.005,0.262,0.983,-0.244,0.366,0.366,-30.15,25.01,-55.14
0.34352636337280273,-0.004,0.261,0.984,-0.183,0.366,0.305,-29.83,25.15,-55.0
0.34387922286987305,-0.004,0.261,0.984,-0.183,0.366,0.305,-30.08,25.34,-55.42
0.4038724899291992,-0.004,0.26,0.983,0.183,0.427,0.305,-29.71,25.1,-54.72
0.4038724899291992,-0.004,0.26,0.983,0.183,0.427,0.305,-29.8,25.17,-54.74
0.4068732261657715,-0.005,0.26,0.984,0.122,0.427,0.305,-29.79,25.37,-55.29
0.4068732261657715,-0.005,0.26,0.984,0.305,0.427,0.366,-29.79,25.37,-55.29
0.4068732261657715,-0.003,0.261,0.984,1.605,0.0,0.0,-29.77,25.3,-55.13
0.4068732261657715,-0.003,0.26,0.984,0.305,0.366,0.305,-29.96,25.43,-54.72
0.4068732261657715,-0.003,0.26,0.984,0.305,0.366,0.305,-29.9,25.26,-55.12
0.4101686477661133,-0.005,0.26,0.984,0.366,0.305,0.305,-29.29,25.01,-55.13
0.4105803966522217,-0.005,0.26,0.984,0.366,0.305,0.305,-29.29,25.01,-55.13
0.4105803966522217,-0.004,0.26,0.984,0.183,0.305,0.366,-29.6,25.1,-55.04
0.4672234058380127,-0.004,0.26,0.984,0.183,0.305,0.366,-29.67,25.15,-55.17
0.4672234058380127,-0.004,0.261,0.984,0.366,0.305,0.366,-29.51,24.82,-55.5
0.4672234058380127,-0.005,0.261,0.983,0.305,0.366,0.366,-29.67,25.08,-55.09
0.4672234058380127,-0.005,0.261,0.983,0.305,0.366,0.366,-29.67,25.08,-55.09
0.4702017307281494,-0.005,0.261,0.983,0.488,0.305,0.366,-29.38,24.85,-55.01
0.4706146717071533,-0.005,0.261,0.983,0.488,0.305,0.366,-29.52,24.66,-55.06
0.4706146717071533,-0.005,0.261,0.984,0.305,0.366,0.305,-29.38,25.1,-55.28
0.4706146717071533,-0.005,0.261,0.984,0.305,0.366,0.305,-29.52,25.12,-55.25
0.4706146717071533,-0.005,0.261,0.984,0.305,0.366,0.305,-29.74,25.3,-55.28
0.4706146717071533,-0.005,0.261,0.984,0.305,0.366,0.366,-29.74,25.3,-55.28
0.5272946357727051,-0.004,0.261,0.983,0.305,0.366,0.366,-29.57,24.82,-55.19
0.5284416675567627,-0.005,0.261,0.983,0.366,0.366,0.305,-29.3,24.99,-55.35
0.5284416675567627,-0.005,0.261,0.983,0.366,0.366,0.305,-29.22,24.89,-54.97
0.5294632911682129,-0.005,0.261,0.984,0.061,0.427,0.305,-29.85,25.23,-55.33
0.5301299095153809,-0.005,0.261,0.984,0.061,0.427,0.305,-29.85,25.23,-55.33
0.5305018424987793,-0.004,0.261,0.984,-0.061,0.305,0.366,-29.61,25.21,-55.5
0.5305018424987793,-0.004,0.261,0.984,-0.061,0.305,0.366,-29.82,25.26,-54.71
0.5305018424987793,-0.005,0.26,0.984,0.061,0.366,0.305,-29.58,25.52,-55.2
0.5305018424987793,-0.005,0.26,0.984,-0.061,0.305,0.366,-29.36,25.3,-54.85
0.5305018424987793,-0.004,0.26,0.984,-0.061,0.305,0.366,-29.36,25.36,-55.48
0.5872557163238525,-0.004,0.26,0.984,-0.183,0.427,0.305,-29.42,25.36,-55.48
0.5872557163238525,-0.004,0.26,0.984,-0.183,0.427,0.305,-29.48,25.23,-54.79
0.5872557163238525,-0.003,0.26,0.984,-0.122,0.366,0.366,-29.42,25.18,-54.75
0.5905439853668213,-0.003,0.26,0.984,-0.122,0.366,0.366,-30.08,25.12,-54.97
0.5905439853668213,-0.004,0.261,0.984,0.061,0.427,0.305,-29.61,25.23,-55.22
0.5905439853668213,-0.004,0.261,0.984,0.061,0.427,0.305,-29.61,25.23,-55.22
0.5919320583343506,-0.005,0.262,0.984,0.549,0.305,0.305,-29.51,25.05,-54.71
0.5919320583343506,-0.005,0.262,0.984,0.671,0.427,0.305,-29.35,25.43,-55.52
0.5935471057891846,-0.005,0.261,0.984,1.605,0.0,0.0,-29.3,25.52,-55.17
0.5935471057891846,-0.005,0.261,0.984,1.038,0.366,0.366,-29.38,25.17,-54.98
0.653954267501831,-0.005,0.261,0.984,1.038,0.366,0.366,-29.38,25.17,-54.98
0.653954267501831,-0.005,0.261,0.983,1.099,0.427,0.305,-29.57,25.2,-55.28
0.653954267501831,-0.005,0.261,0.983,1.099,0.427,0.305,-29.66,25.1,-55.26
0.653954267501831,-0.004,0.261,0.982,0.854,0.366,0.366,-29.63,25.1,-54.93
0.653954267501831,-0.004,0.261,0.982,0.854,0.366,0.366,-29.23,25.04,-54.66
0.6568770408630371,-0.004,0.26,0.982,0.427,0.488,0.244,-29.57,25.02,-55.0
0.6572737693786621,-0.004,0.26,0.982,-0.488,0.366,0.366,-29.73,24.89,-55.1
0.6572737693786621,-0.004,0.26,0.982,-0.488,0.366,0.366,-29.73,24.89,-55.1
0.6586618423461914,-0.004,0.259,0.984,-1.282,0.427,0.305,-29.86,25.04,-54.79
0.6586618423461914,-0.004,0.259,0.984,-1.282,0.427,0.305,-29.76,24.92,-55.0
0.7118852138519287,-0.005,0.259,0.985,-1.221,0.244,0.366,-29.71,25.23,-55.28
0.7135133743286133,-0.005,0.259,0.985,-1.221,0.244,0.366,-29.71,25.23,-55.28
0.7135133743286133,-0.004,0.26,0.985,-0.977,0.305,0.305,-29.47,24.88,-55.76
0.7135133743286133,-0.004,0.26,0.986,-0.488,0.122,0.427,-29.38,24.64,-55.76
0.7135133743286133,-0.004,0.26,0.986,-0.488,0.122,0.427,-29.48,25.1,-55.54
0.7135133743286133,-0.004,0.26,0.985,0.488,0.366,0.366,-29.64,25.17,-55.48
0.7168300151824951,-0.004,0.26,0.985,0.488,0.366,0.366,-29.44,25.1,-55.86
0.7172291278839111,-0.005,0.261,0.984,1.16,0.244,0.305,-29.74,25.11,-55.16
0.7172291278839111,-0.005,0.261,0.984,1.16,0.244,0.305,-29.74,25.11,-55.16
0.7185180187225342,-0.004,0.261,0.984,1.587,0.427,0.305,-29.44,25.1,-54.66
0.7705483436584473,-0.004,0.261,0.984,1.587,0.366,0.366,-29.33,24.79,-54.65
0.7717316150665283,-0.004,0.261,0.982,1.587,0.366,0.366,-29.64,25.34,-55.1
0.7717316150665283,-0.004,0.261,0.982,1.038,0.488,0.305,-29.38,25.45,-54.62
0.7734959125518799,-0.004,0.261,0.982,1.038,0.488,0.305,-29.38,25.45,-54.62
0.7738373279571533,-0.004,0.261,0.983,0.244,0.366,0.305,-29.51,25.33,-55.04
0.7738373279571533,-0.004,0.261,0.983,0.244,0.366,0.305,-29.52,25.33,-54.62
0.7749853134155273,-0.004,0.26,0.984,-0.366,0.427,0.305,-30.08,25.48,-54.69
0.7749853134155273,-0.004,0.26,0.984,-0.366,0.427,0.305,-29.86,25.4,-54.33
0.7749853134155273,-0.004,0.26,0.984,-0.793,0.244,0.366,-29.48,25.65,-54.36
0.7770936489105225,-0.005,0.261,0.984,-0.916,0.305,0.305,-29.83,25.48,-54.38
0.8301970958709717,-0.005,0.261,0.984,-0.916,0.305,0.305,-29.83,25.48,-54.38
0.8306560516357422,-0.004,0.261,0.984,-0.732,0.244,0.366,-30.15,25.48,-55.0
0.8306560516357422,-0.004,0.261,0.984,-0.732,0.244,0.366,-29.47,25.43,-55.38
0.8318967819213867,-0.004,0.261,0.984,-0.305,0.427,0.305,-29.61,25.59,-55.86
0.8318967819213867,-0.004,0.261,0.984,-0.305,0.427,0.305,-29.61,25.59,-55.88
0.8335292339324951,-0.004,0.261,0.984,0.244,0.305,0.366,-29.6,25.4,-56.12
0.8338747024536133,-0.003,0.261,0.984,0.732,0.488,0.305,-29.6,25.4,-56.12
0.8338747024536133,-0.003,0.261,0.984,0.732,0.488,0.305,-29.87,25.46,-56.23
0.8349804878234863,-0.004,0.26,0.984,0.793,0.366,0.366,-29.67,25.12,-56.11
0.8349804878234863,-0.004,0.26,0.984,0.793,0.366,0.366,-29.92,25.26,-55.73
0.890209436416626,-0.004,0.26,0.984,0.793,0.488,0.305,-30.23,25.5,-55.93
0.891671895980835,-0.004,0.26,0.984,0.793,0.488,0.305,-30.23,25.5,-55.93
0.891671895980835,-0.004,0.26,0.984,0.854,0.305,0.305,-29.79,25.67,-55.82
0.891671895980835,-0.005,0.26,0.984,0.793,0.427,0.244,-29.89,25.68,-55.23
0.8935425281524658,-0.005,0.26,0.984,0.793,0.427,0.244,-29.6,25.43,-55.38
0.8939681053161621,-0.005,0.261,0.984,0.244,0.305,0.366,-29.6,25.36,-55.5
0.8939681053161621,-0.005,0.261,0.984,0.244,0.305,0.366,-29.6,25.36,-55.51
0.8950953483581543,-0.004,0.261,0.983,0.061,0.305,0.366,-29.35,25.39,-55.38
0.8950953483581543,-0.004,0.261,0.983,0.061,0.305,0.366,-29.14,25.39,-55.38
0.8962883949279785,-0.003,0.261,0.982,-0.061,0.305,0.366,-29.57,25.12,-55.67
0.9472417831420898,-0.003,0.261,0.982,-0.183,0.427,0.305,-29.16,25.08,-55.61
0.9501705169677734,-0.004,0.261,0.982,-0.183,0.427,0.305,-29.36,25.31,-55.33
0.9508321285247803,-0.004,0.261,0.983,-0.427,0.305,0.366,-29.29,25.49,-55.31
0.9508321285247803,-0.004,0.261,0.983,-0.427,0.305,0.366,-29.29,25.49,-55.31
0.9508321285247803,-0.004,0.26,0.984,-0.244,0.427,0.305,-29.13,25.42,-55.19
0.9522311687469482,-0.004,0.26,0.984,-0.244,0.427,0.305,-30.05,25.3,-55.2
0.9522311687469482,-0.004,0.26,0.985,-0.183,0.305,0.366,-29.52,25.33,-55.42
0.9535315036773682,-0.004,0.26,0.985,-0.183,0.305,0.366,-29.52,25.33,-55.42
0.954164981842041,-0.004,0.259,0.986,0.244,0.427,0.305,-29.51,25.18,-55.5
0.954164981842041,-0.005,0.26,0.985,0.427,0.366,0.366,-29.47,25.27,-55.5
1.007967233657837,-0.005,0.26,0.985,0.427,0.366,0.366,-29.68,24.99,-55.73
1.007967233657837,-0.005,0.26,0.985,0.732,0.427,0.305,-29.22,25.24,-55.52
1.007967233657837,-0.005,0.26,0.985,0.732,0.427,0.305,-29.42,25.3,-55.54
1.007967233657837,-0.004,0.26,0.984,0.793,0.305,0.366,-29.35,24.98,-56.18
1.007967233657837,-0.004,0.26,0.984,0.793,0.305,0.366,-29.35,24.98,-56.18
1.007967233657837,-0.004,0.261,0.983,0.854,0.366,0.366,-29.67,25.27,-55.85
1.007967233657837,-0.005,0.262,0.982,0.488,0.366,0.366,-29.47,25.21,-56.31
1.0120513439178467,2.867,1.616,2.871,1.605,0.0,0.0,-29.71,25.31,-56.09
1.0120513439178467,-0.004,0.261,0.983,0.244,0.427,0.366,-29.8,25.78,-55.92
1.0120513439178467,-0.004,0.261,0.983,0.244,0.427,0.366,-29.8,25.78,-55.92
1.063464879989624,-0.004,0.261,0.983,-0.061,0.366,0.366,-29.29,24.74,-55.9
1.0654916763305664,-0.004,0.261,0.983,-0.061,0.366,0.366,-29.52,25.1,-55.9
1.0654916763305664,-0.005,0.261,0.984,-0.061,0.427,0.366,-29.47,25.11,-56.23
1.0654916763305664,-0.005,0.261,0.985,-0.183,0.366,0.305,-29.35,25.29,-55.85
1.0654916763305664,-0.005,0.261,0.985,-0.183,0.366,0.305,-29.11,25.37,-55.88
1.0654916763305664,-0.004,0.26,0.984,0.0,0.366,0.366,-29.58,25.15,-55.57
1.0654916763305664,-0.004,0.26,0.984,0.0,0.366,0.366,-29.58,25.15,-55.57
1.0654916763305664,-0.004,0.26,0.984,0.061,0.366,0.366,-29.51,25.04,-55.67
1.0695292949676514,-0.004,0.26,0.984,0.061,0.366,0.366,-29.45,25.34,-55.5
1.0695292949676514,-0.004,0.261,0.984,0.366,0.366,0.366,-29.9,24.64,-55.63
1.1233758926391602,-0.004,0.26,0.984,0.427,0.366,0.366,-29.67,25.01,-54.97
1.1233758926391602,-0.004,0.26,0.984,0.427,0.366,0.366,-29.67,24.95,-54.69
1.1233758926391602,-0.004,0.26,0.984,0.671,0.366,0.366,-29.38,25.53,-55.6
1.1233758926391602,-0.004,0.26,0.984,0.671,0.366,0.366,-29.38,25.53,-55.6
1.1233758926391602,-0.005,0.26,0.984,0.549,0.427,0.366,-29.32,25.31,-55.44
1.1233758926391602,-0.005,0.26,0.984,0.549,0.427,0.366,-29.47,25.64,-54.63
1.1233758926391602,-0.005,0.26,0.984,0.549,0.366,0.305,-29.41,25.08,-55.22
1.1275248527526855,-0.005,0.26,0.984,0.366,0.427,0.305,-29.23,25.49,-55.42
1.1275248527526855,-0.004,0.26,0.984,0.366,0.427,0.305,-29.23,25.49,-55.42
1.1275248527526855,-0.004,0.26,0.984,0.366,0.366,0.366,-29.54,25.55,-54.93
1.1811680793762207,-0.004,0.26,0.984,0.366,0.366,0.366,-29.63,25.53,-54.69
1.1811680793762207,-0.004,0.26,0.984,0.183,0.366,0.366,-29.44,25.15,-54.88
1.1811680793762207,-0.004,0.26,0.984,0.183,0.366,0.366,-29.44,25.15,-55.52
1.1851963996887207,-0.005,0.261,0.983,0.183,0.366,0.366,-29.71,25.05,-55.92
1.1851963996887207,-0.005,0.261,0.983,0.183,0.366,0.366,-29.71,25.05,-55.92
1.1851963996887207,-0.004,0.261,0.984,0.122,0.366,0.305,-29.1,25.77,-55.98
1.1851963996887207,-0.005,0.261,0.984,0.122,0.366,0.366,-29.42,25.55,-55.45
1.1851963996887207,-0.005,0.261,0.984,0.122,0.366,0.366,-29.66,25.1,-55.25
1.1851963996887207,-0.005,0.261,0.983,0.061,0.427,0.305,-29.47,25.37,-55.38
1.1851963996887207,-0.005,0.261,0.983,0.061,0.427,0.305,-29.47,25.37,-55.38
1.2406482696533203,-0.005,0.261,0.983,0.183,0.427,0.305,-29.77,25.4,-55.35
1.2406482696533203,-0.005,0.261,0.983,0.183,0.427,0.305,-29.82,24.8,-55.47
1.2406482696533203,-0.005,0.261,0.984,0.244,0.427,0.305,-30.11,25.42,-55.39
1.2406482696533203,-0.004,0.26,0.984,0.427,0.366,0.305,-29.96,25.52,-55.52
1.244673490524292,-0.004,0.26,0.984,0.427,0.366,0.305,-29.96,25.52,-55.63
1.244673490524292,-0.005,0.26,0.983,0.488,0.427,0.305,-29.89,25.45,-55.45
1.244673490524292,-0.005,0.26,0.983,0.488,0.427,0.305,-29.92,25.45,-55.45
1.244673490524292,-0.005,0.261,0.984,0.244,0.305,0.366,-30.04,25.18,-55.86
1.244673490524292,-0.005,0.261,0.984,0.244,0.305,0.366,-29.9,25.86,-55.35
1.244673490524292,-0.004,0.261,0.983,0.183,0.366,0.305,-29.55,25.71,-55.79
1.2978665828704834,-0.004,0.261,0.983,0.305,0.305,0.366,-29.55,25.4,-55.63
1.2978665828704834,-0.004,0.26,0.983,0.305,0.305,0.366,-29.9,25.4,-55.63
1.2978665828704834,-0.005,0.261,0.983,0.183,0.366,0.305,-29.47,25.5,-56.05
1.2978665828704834,-0.005,0.261,0.983,0.183,0.366,0.305,-30.04,25.45,-55.8
1.2978665828704834,-0.005,0.261,0.983,0.061,0.305,0.366,-29.51,25.36,-55.74
1.2978665828704834,-0.005,0.261,0.983,0.061,0.305,0.366,-29.51,25.36,-55.74
1.301955223083496,-0.004,0.26,0.984,0.061,0.427,0.305,-29.86,25.8,-55.63
1.301955223083496,-0.004,0.26,0.984,0.061,0.427,0.305,-29.64,25.33,-55.63
1.301955223083496,-0.004,0.26,0.983,0.244,0.305,0.366,-29.48,25.37,-56.11
1.301955223083496,-0.004,0.26,0.983,0.244,0.427,0.244,-29.7,25.46,-55.61
1.3518455028533936,-0.004,0.261,0.983,0.244,0.427,0.244,-29.63,25.2,-55.79
1.3558599948883057,-0.004,0.261,0.983,0.122,0.366,0.305,-30.01,25.33,-54.87
1.3558599948883057,-0.004,0.261,0.983,0.122,0.366,0.305,-30.01,25.33,-54.87
1.3558599948883057,-0.004,0.26,0.983,0.061,0.366,0.305,-30.14,25.31,-54.74
1.3558599948883057,-0.004,0.26,0.983,0.061,0.366,0.305,-29.66,25.87,-54.87
1.3558599948883057,-0.004,0.26,0.983,0.183,0.305,0.366,-30.18,25.67,-55.1
1.3558599948883057,-0.004,0.26,0.983,0.183,0.305,0.366,-30.18,25.67,-55.1
1.3558599948883057,-0.005,0.261,0.984,0.244,0.366,0.366,-29.76,25.45,-55.29
1.3603060245513916,-0.005,0.261,0.984,0.061,0.305,0.366,-29.9,25.43,-55.29
1.3603060245513916,-0.005,0.261,0.984,0.061,0.305,0.366,-29.68,25.01,-54.94
1.4122021198272705,-0.005,0.26,0.984,0.0,0.427,0.305,-29.92,25.29,-55.38
1.4136104583740234,-0.005,0.26,0.984,0.0,0.427,0.305,-29.73,25.69,-55.12
1.4136104583740234,-0.004,0.26,0.984,0.183,0.305,0.366,-30.12,25.3,-55.47
1.4144186973571777,-0.004,0.26,0.984,0.183,0.305,0.366,-30.12,25.3,-55.47
1.4144186973571777,-0.004,0.26,0.984,0.244,0.366,0.305,-30.43,25.61,-55.73
1.4155254364013672,-0.004,0.261,0.984,0.244,0.366,0.305,-29.83,25.27,-55.5
1.416527509689331,-0.004,0.261,0.984,0.244,0.366,0.305,-29.93,25.74,-55.69
1.4169623851776123,-0.005,0.261,0.984,0.244,0.427,0.305,-29.64,25.46,-55.03
1.4169623851776123,-0.005,0.261,0.984,0.244,0.427,0.305,-29.64,25.46,-55.03
1.418001651763916,-0.005,0.261,0.983,0.244,0.305,0.366,-29.71,25.72,-56.02
1.4683325290679932,-0.005,0.261,0.983,0.244,0.305,0.366,-30.05,25.72,-56.02
1.4683325290679932,-0.004,0.261,0.983,0.244,0.366,0.366,-29.58,25.52,-55.35
1.4683325290679932,-0.004,0.261,0.983,0.061,0.305,0.366,-29.64,25.17,-55.61
1.4683325290679932,-0.004,0.261,0.983,0.061,0.305,0.366,-29.52,25.42,-55.47
1.4723443984985352,-0.004,0.261,0.984,0.0,0.427,0.305,-29.52,25.69,-55.54
1.4723443984985352,-0.004,0.261,0.984,0.0,0.427,0.305,-29.52,25.69,-55.54
1.4723443984985352,-0.004,0.261,0.984,0.061,0.305,0.366,-29.57,25.53,-56.26
1.4723443984985352,-0.004,0.261,0.984,0.061,0.305,0.366,-29.33,25.99,-55.73
1.4723443984985352,-0.005,0.261,0.984,0.183,0.427,0.305,-29.64,25.91,-55.86
1.4723443984985352,-0.005,0.261,0.984,0.183,0.427,0.305,-29.64,25.91,-55.86
1.5256175994873047,-0.005,0.262,0.984,0.183,0.366,0.305,-29.79,25.67,-55.41
1.5256175994873047,-0.005,0.261,0.984,0.244,0.366,0.305,-29.86,25.67,-55.41
1.5256175994873047,-0.005,0.261,0.984,0.244,0.366,0.305,-29.93,25.67,-55.57
1.5256175994873047,-0.004,0.261,0.984,0.305,0.366,0.366,-29.7,25.86,-55.6
1.5256175994873047,-0.004,0.261,0.984,0.305,0.366,0.366,-30.39,25.56,-55.85
1.5256175994873047,-0.004,0.261,0.984,0.244,0.427,0.305,-29.98,25.49,-55.77
1.5298073291778564,-0.004,0.261,0.984,0.244,0.427,0.305,-29.98,25.49,-55.77
1.5298073291778564,-0.004,0.261,0.983,0.183,0.305,0.305,-29.7,25.53,-55.83
1.5298073291778564,-0.004,0.261,0.983,0.244,0.427,0.305,-29.93,25.39,-55.45
1.5298073291778564,-0.004,0.261,0.983,0.244,0.427,0.305,-29.54,25.2,-55.58
1.5785284042358398,-0.004,0.261,0.984,0.122,0.305,0.366,-29.93,25.33,-56.27
1.5825724601745605,-0.004,0.261,0.984,0.122,0.305,0.366,-29.93,25.33,-56.27
1.5825724601745605,-0.004,0.261,0.984,0.061,0.427,0.305,-29.92,25.29,-55.12
1.5825724601745605,-0.004,0.261,0.984,0.061,0.427,0.305,-30.04,25.4,-55.82
1.5825724601745605,-0.004,0.261,0.984,0.122,0.305,0.366,-29.73,25.12,-55.22
1.5825724601745605,-0.004,0.261,0.984,0.122,0.305,0.366,-29.57,25.07,-55.14
1.5825724601745605,-0.005,0.26,0.984,0.244,0.366,0.305,-30.04,25.39,-54.49
1.5865931510925293,-0.004,0.261,0.984,0.183,0.366,0.305,-30.04,25.31,-55.35
1.5865931510925293,-0.004,0.261,0.984,0.183,0.366,0.305,-29.96,25.31,-55.35
1.5865931510925293,-0.004,0.261,0.984,0.122,0.366,0.305,-29.99,25.17,-55.19
1.6394636631011963,-0.004,0.261,0.984,0.122,0.366,0.305,-29.76,24.98,-55.52
1.6394636631011963,-0.004,0.261,0.984,0.244,0.366,0.305,-29.57,25.23,-55.96
1.6394636631011963,-0.004,0.261,0.984,0.244,0.366,0.305,-29.57,25.23,-55.96
1.6438348293304443,-0.005,0.261,0.984,0.305,0.427,0.305,-29.71,25.11,-55.74
1.6438348293304443,-0.005,0.261,0.984,0.122,0.366,0.305,-29.95,25.18,-55.31
1.6438348293304443,-0.004,0.26,0.983,0.122,0.366,0.305,-29.48,24.85,-55.54
1.6438348293304443,-0.004,0.261,0.983,0.061,0.427,0.305,-29.86,24.95,-55.41
1.6438348293304443,-0.004,0.261,0.983,0.061,0.427,0.305,-29.86,24.95,-55.41
1.6438348293304443,-0.004,0.261,0.984,0.122,0.305,0.305,-29.68,25.15,-55.8
1.6438348293304443,-0.004,0.261,0.984,0.122,0.305,0.305,-30.04,24.93,-55.25
1.6997582912445068,-0.004,0.261,0.983,0.244,0.305,0.305,-29.9,25.08,-55.58
1.6997582912445068,-0.004,0.261,0.983,0.244,0.305,0.305,-29.87,25.17,-55.36
1.7015047073364258,-0.004,0.26,0.983,0.183,0.366,0.305,-29.95,25.24,-55.04
1.7015047073364258,-0.004,0.26,0.983,0.122,0.366,0.305,-29.95,25.24,-55.04
1.7015047073364258,-0.004,0.26,0.984,0.122,0.366,0.305,-30.01,25.17,-55.26
1.7015047073364258,-0.004,0.261,0.984,0.244,0.366,0.305,-30.15,25.34,-55.19
1.7015047073364258,-0.004,0.261,0.984,0.244,0.366,0.305,-29.89,24.88,-55.32
1.7015047073364258,0.004,0.273,0.973,-5.737,-0.366,0.671,-29.95,25.14,-55.16
1.7015047073364258,0.004,0.273,0.973,-5.737,-0.366,0.671,-29.95,25.14,-55.16
1.7057926654815674,0.006,0.239,0.978,46.265,20.63,3.784,-29.95,25.01,-54.63
1.7550878524780273,0.006,0.239,0.978,46.265,20.63,3.784,-29.89,24.93,-54.97
1.7550878524780273,-0.001,0.262,0.991,23.071,4.395,-4.761,-29.51,25.02,-54.18
1.75913667678833,-0.001,0.262,0.991,23.071,4.395,-4.761,-29.63,24.95,-54.72
1.75913667678833,-0.016,0.286,0.982,-4.822,9.827,-5.127,-29.22,24.73,-54.95
1.75913667678833,-0.028,0.264,0.986,15.259,-0.061,0.427,-29.22,24.73,-54.95
1.75913667678833,2.867,1.616,2.871,1.605,0.0,0.0,-29.85,24.51,-54.34
1.75913667678833,-0.018,0.291,0.996,9.033,0.122,0.793,-29.95,24.67,-54.63
1.75913667678833,-0.018,0.291,0.996,9.033,0.122,0.793,-29.89,24.6,-54.87
1.75913667678833,-0.01,0.272,0.982,3.113,-0.366,0.854,-30.24,24.51,-55.14
1.7631926536560059,-0.01,0.272,0.982,3.113,-0.366,0.854,-30.24,24.51,-55.14
1.8120148181915283,-0.011,0.272,0.973,11.169,-0.366,0.854,-29.96,24.71,-55.25
1.8120148181915283,-0.012,0.289,0.972,0.305,-1.892,1.343,-29.82,24.31,-55.25
1.8120148181915283,-0.012,0.289,0.972,0.305,-1.892,1.343,-30.14,24.69,-54.81
1.8120148181915283,-0.01,0.277,0.961,-6.47,-2.991,1.648,-30.24,24.92,-54.63
1.8163774013519287,-0.01,0.277,0.961,-6.47,-2.991,1.648,-30.09,24.66,-53.99
1.8163774013519287,-0.007,0.277,0.959,-9.46,-2.686,1.404,-30.36,24.99,-55.26
1.8163774013519287,-0.007,0.277,0.959,-9.46,-2.686,1.404,-30.36,24.99,-55.26
1.8163774013519287,-0.005,0.277,0.967,-19.47,-1.77,0.854,-29.98,24.9,-55.2
1.8163774013519287,-0.003,0.259,0.976,-21.057,-1.16,0.366,-30.18,24.99,-55.06
1.8163774013519287,-0.003,0.259,0.976,-21.057,-1.16,0.366,-29.79,25.27,-55.42
1.866365909576416,-0.007,0.257,0.992,-8.728,1.465,-0.732,-30.08,25.15,-54.87
1.8704631328582764,-0.007,0.257,0.992,-8.728,1.465,-0.732,-30.08,25.15,-54.87
1.8704631328582764,0.024,0.314,1.0,-5.737,-1.16,0.916,-30.09,24.98,-55.16
1.8704631328582764,0.024,0.314,1.0,-5.737,-1.16,0.916,-29.99,24.79,-55.04
1.8704631328582764,0.16,0.359,0.97,1.404,10.071,19.47,-29.55,25.11,-54.74
1.8704631328582764,0.143,0.319,0.94,6.775,8.728,10.376,-29.9,24.5,-55.26
1.8704631328582764,0.143,0.319,0.94,6.775,8.728,10.376,-29.9,24.1,-55.12
1.8704631328582764,-0.054,0.342,0.92,-3.601,5.615,11.841,-29.73,24.23,-55.04
1.8747196197509766,-0.054,0.342,0.92,-3.601,5.615,11.841,-29.73,24.23,-55.04
1.8747196197509766,-0.161,0.334,0.936,-21.484,6.714,1.465,-29.52,25.18,-54.85
1.9240248203277588,-0.161,0.334,0.936,-21.484,6.714,1.465,-30.34,25.14,-55.36
1.9240248203277588,-0.052,0.326,0.951,-30.457,-10.132,7.446,-29.79,25.15,-55.06
1.9240248203277588,0.072,0.357,0.982,-24.963,10.742,14.709,-29.9,25.01,-54.95
1.9240248203277588,0.072,0.357,0.982,-24.963,10.742,14.709,-29.9,25.01,-54.95
1.9280459880828857,0.03,0.319,1.0,-5.92,-1.404,17.7,-30.09,25.15,-55.35
1.9280459880828857,0.03,0.319,1.0,-5.92,-1.404,17.7,-29.73,25.39,-55.12
1.9280459880828857,-0.047,0.317,0.981,18.555,7.69,8.728,-29.74,24.96,-54.11
1.9280459880828857,-0.047,0.317,0.981,18.555,7.69,8.728,-29.93,25.12,-54.6
1.9280459880828857,-0.075,0.295,0.978,14.404,-1.892,-7.324,-29.96,24.93,-54.36
1.9280459880828857,-0.084,0.295,0.949,13.245,-9.216,-16.602,-29.73,25.17,-54.02
1.9806768894195557,-0.084,0.295,0.949,13.245,-9.216,-16.602,-29.73,25.17,-54.02
1.9806768894195557,-0.031,0.339,0.946,-2.625,-14.954,-28.992,-29.9,25.8,-54.0
1.9806768894195557,-0.031,0.339,0.946,-2.625,-14.954,-28.992,-30.17,25.46,-54.25
1.9806768894195557,0.03,0.215,0.994,-17.883,-18.311,-38.879,-29.86,25.64,-54.36
1.9806768894195557,0.03,0.215,0.994,-17.883,-18.311,-38.879,-30.15,25.83,-53.54
1.9848387241363525,-0.035,0.038,1.114,2.319,-30.701,-56.03,-30.56,25.91,-53.87
1.9848387241363525,-0.087,-0.044,1.22,68.97,-10.681,-36.438,-30.56,25.91,-54.52
1.9848387241363525,-0.087,-0.044,1.22,68.97,-10.681,-36.438,-30.28,25.49,-54.52
1.9848387241363525,-0.045,0.022,1.192,131.531,10.559,-7.202,-30.49,25.05,-54.0
1.9848387241363525,-0.045,0.022,1.192,131.531,10.559,-7.202,-30.34,24.35,-53.9
2.0385162830352783,-0.018,0.218,1.073,172.607,9.521,13.184,-30.25,23.81,-53.14
2.0385162830352783,-0.018,0.218,1.073,172.607,9.521,13.184,-30.25,23.81,-53.14
2.0385162830352783,-0.009,0.335,0.94,169.067,15.137,12.268,-30.18,23.52,-53.7
2.0385162830352783,-0.009,0.335,0.94,136.414,9.827,12.329,-29.8,23.12,-53.54
2.042548418045044,0.008,0.362,0.85,136.414,9.827,12.329,-29.73,22.79,-52.95
2.042548418045044,-0.019,0.398,0.846,89.844,1.221,9.094,-29.66,23.0,-52.98
2.042548418045044,-0.019,0.398,0.846,89.844,1.221,9.094,-29.66,23.0,-52.98
2.042548418045044,-0.035,0.439,0.913,54.688,-5.92,8.24,-30.39,22.61,-52.41
2.042548418045044,-0.035,0.439,0.913,54.688,-5.92,8.24,-30.06,22.29,-52.32
2.042548418045044,-0.039,0.444,0.999,64.697,-12.695,12.695,-30.05,22.13,-52.46
2.0954766273498535,-0.039,0.444,0.999,64.697,-12.695,12.695,-30.24,22.01,-51.59
2.0954766273498535,-0.031,0.443,1.055,116.272,-13.123,18.677,-29.93,21.46,-52.21
2.0954766273498535,-0.022,0.428,1.041,173.279,-10.742,23.01,-30.5,20.84,-51.13
2.0995938777923584,-0.022,0.428,1.041,173.279,-10.742,23.01,-30.5,20.84,-51.13
2.0995938777923584,-0.01,0.421,0.962,207.214,-8.606,24.048,-30.58,20.33,-50.91
2.0995938777923584,-0.01,0.421,0.962,207.214,-8.606,24.048,-30.43,19.39,-50.22
2.0995938777923584,0.033,0.445,0.845,201.05,-8.484,22.705,-30.36,19.38,-50.31
2.0995938777923584,0.033,0.445,0.845,201.05,-8.484,22.705,-30.47,19.09,-50.38
2.0995938777923584,0.045,0.495,0.739,151.245,-12.39,20.813,-30.75,18.97,-50.47
2.1036059856414795,0.045,0.495,0.739,60.181,-23.865,14.771,-30.75,18.97,-50.47
2.1528494358062744,0.028,0.503,0.714,60.181,-23.865,14.771,-30.63,18.62,-50.41
2.1528494358062744,0.034,0.503,0.76,-13.367,-35.278,13.0,-30.99,18.74,-50.66
2.156862258911133,0.034,0.503,0.76,-13.367,-35.278,13.0,-30.71,18.77,-50.53
2.156862258911133,0.07,0.611,0.857,-17.456,-43.518,6.165,-30.68,19.15,-50.92
2.156862258911133,0.07,0.611,0.857,-17.456,-43.518,6.165,-30.68,19.15,-50.92
2.156862258911133,0.066,0.62,0.974,21.667,-47.852,6.531,-31.0,18.75,-51.36
2.156862258911133,0.066,0.62,0.974,21.667,-47.852,6.531,-31.37,18.34,-51.01
2.156862258911133,0.04,0.554,1.019,83.313,-50.476,11.292,-31.45,18.42,-50.86
2.1609652042388916,0.064,0.582,0.968,143.555,-50.72,21.179,-31.32,17.83,-50.34
2.1609652042388916,0.064,0.582,0.968,143.555,-50.72,21.179,-31.32,17.83,-50.34
2.2143919467926025,0.092,0.601,0.864,160.217,-54.626,29.053,-31.51,17.51,-49.55
2.2143919467926025,0.092,0.601,0.864,160.217,-54.626,29.053,-31.88,17.03,-49.96
2.2143919467926025,0.128,0.592,0.776,122.253,-57.922,36.682,-32.72,17.13,-50.28
2.2143919467926025,0.128,0.592,0.776,122.253,-57.922,36.682,-32.9,16.73,-50.15
2.2143919467926025,0.132,0.446,0.76,39.368,-58.533,52.246,-33.12,16.41,-50.09
2.2143919467926025,0.132,0.446,0.76,39.368,-58.533,52.246,-33.12,16.41,-50.09
2.2143919467926025,0.162,0.668,0.744,10.071,-63.477,51.331,-33.63,16.03,-50.41
2.2184019088745117,0.145,0.655,0.797,25.94,-55.42,55.054,-33.67,15.86,-50.09
2.2184019088745117,0.145,0.655,0.797,25.94,-55.42,55.054,-33.79,15.99,-50.16
2.2184019088745117,0.116,0.466,0.878,45.654,-58.105,58.533,-34.33,15.61,-50.09
2.267744779586792,0.116,0.466,0.878,45.654,-58.105,58.533,-34.33,15.61,-50.09
2.267744779586792,0.146,0.718,0.876,43.396,-52.368,65.247,-34.81,15.45,-50.57
2.267744779586792,0.146,0.718,0.876,43.396,-52.368,65.247,-34.86,15.05,-50.15
2.267744779586792,0.172,0.556,0.878,57.617,-49.5,68.42,-35.05,14.76,-49.82
2.272146701812744,0.212,0.416,0.867,51.575,-46.814,89.417,-35.4,14.63,-50.38
2.272146701812744,0.212,0.416,0.867,51.575,-46.814,89.417,-35.4,14.63,-50.38
2.272146701812744,0.255,0.502,0.859,-40.588,-34.607,105.957,-36.22,14.19,-50.76
2.272146701812744,0.255,0.502,0.859,-40.588,-34.607,105.957,-36.42,14.35,-51.3
2.272146701812744,0.297,0.505,0.865,-104.004,-21.301,120.483,-37.01,14.34,-51.94
2.272146701812744,0.297,0.505,0.865,-104.004,-21.301,120.483,-37.26,14.18,-52.16
2.321639060974121,0.302,0.536,0.866,-110.657,3.662,127.319,-37.64,13.99,-52.44
2.321639060974121,0.302,0.536,0.866,-110.657,3.662,127.319,-37.64,13.99,-52.44
2.326028347015381,0.309,0.583,0.857,-111.206,24.597,128.723,-37.72,14.24,-53.24
2.326028347015381,0.315,0.606,0.84,-123.657,50.11,122.62,-38.02,14.37,-53.14
2.326028347015381,0.315,0.606,0.84,-123.657,50.11,122.62,-38.15,14.4,-53.51
2.326028347015381,0.294,0.612,0.835,-141.174,64.758,111.938,-38.73,14.94,-54.65
2.326028347015381,0.294,0.612,0.835,-141.174,64.758,111.938,-38.73,15.0,-55.0
2.326028347015381,0.264,0.61,0.832,-141.663,63.477,101.868,-38.73,14.86,-55.09
2.3300940990448,0.264,0.61,0.832,-141.663,63.477,101.868,-38.73,14.86,-55.09
2.3300940990448,0.255,0.605,0.827,-111.816,52.612,90.698,-38.63,15.65,-55.8
2.379849672317505,0.277,0.605,0.813,-71.411,46.143,77.942,-38.59,15.46,-55.93
2.379849672317505,0.277,0.605,0.813,-71.411,46.143,77.942,-39.13,15.45,-56.45
2.379849672317505,0.302,0.612,0.795,-68.237,49.133,65.674,-38.83,15.46,-55.74
2.379849672317505,0.302,0.612,0.795,-68.237,49.133,65.674,-38.83,15.46,-55.74
2.379849672317505,0.306,0.608,0.785,-105.835,54.688,54.199,-38.54,15.96,-56.59
2.3838653564453125,2.867,1.616,2.871,1.605,0.0,0.0,-38.53,16.62,-56.77
2.3838653564453125,0.292,0.581,0.788,-124.573,55.42,44.25,-38.94,16.84,-57.04
2.3838653564453125,0.289,0.549,0.799,-91.248,47.424,35.95,-38.73,16.95,-56.93
2.3838653564453125,0.289,0.549,0.799,-91.248,47.424,35.95,-38.73,16.95,-57.32
2.3838653564453125,0.288,0.533,0.81,-45.532,33.447,25.879,-38.45,17.57,-57.51
2.434037923812866,0.288,0.533,0.81,-45.532,33.447,25.879,-38.45,17.57,-57.51
2.434037923812866,0.272,0.519,0.828,-27.771,18.982,12.756,-38.23,18.2,-57.34
2.434037923812866,0.272,0.519,0.828,-27.771,18.982,12.756,-38.22,18.46,-57.8
2.434037923812866,0.254,0.487,0.861,-20.569,5.188,0.977,-38.47,18.34,-57.85
2.438098192214966,0.254,0.487,0.861,0.366,-5.615,-6.104,-38.47,18.42,-57.51
2.438098192214966,0.257,0.443,0.9,0.366,-5.615,-6.104,-38.28,18.42,-57.51
2.438098192214966,0.281,0.406,0.927,9.216,-7.08,-6.104,-38.73,18.42,-57.66
2.438098192214966,0.281,0.406,0.927,9.216,-7.08,-6.104,-38.83,18.55,-57.67
2.438098192214966,0.292,0.379,0.948,-20.874,5.249,1.343,-38.59,18.81,-58.02
2.438098192214966,0.292,0.379,0.948,-20.874,5.249,1.343,-38.59,18.81,-58.02
2.4877676963806152,0.274,0.355,0.962,-54.382,21.362,10.559,-38.07,19.51,-58.29
2.491806983947754,0.274,0.355,0.962,-54.382,21.362,10.559,-38.34,19.51,-58.29
2.491806983947754,0.245,0.342,0.963,-57.983,38.696,14.16,-38.34,19.96,-58.29
2.491806983947754,0.245,0.342,0.963,-57.983,38.696,14.16,-38.07,19.91,-58.23
2.491806983947754,0.229,0.34,0.959,-43.518,49.316,13.245,-37.87,20.11,-58.33
2.491806983947754,0.232,0.345,0.949,-33.875,52.612,10.803,-37.84,20.45,-57.75
2.491806983947754,0.232,0.345,0.949,-33.875,52.612,10.803,-37.84,20.45,-57.75
2.495816946029663,0.237,0.346,0.937,-29.48,50.537,8.118,-37.93,20.62,-58.02
2.495816946029663,0.237,0.346,0.937,-29.48,50.537,8.118,-37.34,20.49,-57.82
2.495816946029663,0.24,0.339,0.925,-16.663,46.631,5.005,-37.12,21.19,-57.09
2.544675350189209,0.24,0.339,0.925,-16.663,46.631,5.005,-37.12,21.19,-57.09
2.544675350189209,0.236,0.338,0.916,-3.357,43.457,2.258,-37.4,21.24,-57.02
2.54868221282959,0.236,0.338,0.916,-3.357,43.457,2.258,-36.96,20.97,-57.15
2.54868221282959,0.225,0.337,0.908,-7.446,41.382,-0.793,-36.82,21.53,-56.24
2.54868221282959,0.223,0.332,0.897,-17.212,42.297,-3.479,-36.29,21.37,-57.15
2.54868221282959,0.223,0.332,0.897,-17.212,42.297,-3.479,-36.29,21.37,-57.15
2.54868221282959,0.23,0.334,0.889,-30.212,47.424,-2.686,-36.28,21.48,-56.97
2.54868221282959,0.23,0.334,0.889,-30.212,47.424,-2.686,-35.69,21.89,-56.97
2.54868221282959,0.227,0.339,0.887,-56.152,47.852,0.854,-35.72,22.26,-57.0
2.552694797515869,0.227,0.339,0.887,-56.152,47.852,0.854,-35.76,22.51,-57.23
2.607786178588867,0.218,0.334,0.893,-63.477,41.687,5.676,-35.82,23.03,-57.13
2.607786178588867,0.202,0.325,0.91,-32.654,29.785,8.179,-35.6,23.02,-56.97
2.608830451965332,0.202,0.325,0.91,-32.654,29.785,8.179,-35.6,23.02,-56.97
2.608830451965332,0.181,0.323,0.932,2.808,13.855,5.798,-35.72,23.14,-56.62
2.610351800918579,0.181,0.323,0.932,2.808,13.855,5.798,-35.84,22.99,-56.93
2.610351800918579,0.168,0.316,0.955,14.526,2.38,1.343,-35.37,23.3,-56.33
2.6114401817321777,0.168,0.316,0.955,14.526,2.38,1.343,-35.37,23.14,-56.5
2.6114401817321777,0.156,0.294,0.984,13.611,-3.296,-3.052,-35.46,23.03,-56.18
2.6125121116638184,0.156,0.294,0.984,19.043,-5.005,-6.104,-35.46,23.03,-56.18
2.6135451793670654,0.141,0.265,1.011,19.043,-5.005,-6.104,-35.11,23.14,-56.4
2.6639411449432373,0.129,0.243,1.029,31.189,-3.052,-7.629,-35.27,23.08,-56.74
2.6639411449432373,0.129,0.243,1.029,31.189,-3.052,-7.629,-35.24,23.57,-56.5
2.6654467582702637,0.119,0.236,1.03,29.175,6.409,-6.958,-35.24,23.21,-55.67
2.6654467582702637,0.119,0.236,1.03,29.175,6.409,-6.958,-35.24,23.21,-55.67
2.6654467582702637,0.109,0.234,1.018,2.319,22.339,-4.761,-35.05,23.38,-55.14
2.6654467582702637,0.109,0.234,1.018,2.319,22.339,-4.761,-34.89,23.68,-55.61
2.6681859493255615,0.099,0.227,0.999,-27.527,41.138,-1.587,-35.09,23.76,-55.09
2.6681859493255615,0.091,0.221,0.974,-37.598,54.382,2.197,-35.05,23.88,-55.61
2.6681859493255615,0.091,0.221,0.974,-37.598,54.382,2.197,-35.05,23.88,-55.61
2.6681859493255615,0.089,0.221,0.946,-31.25,59.204,5.92,-34.86,24.33,-55.39
2.717836856842041,0.089,0.221,0.946,-31.25,59.204,5.92,-34.33,24.58,-55.39
2.717836856842041,0.092,0.223,0.918,-25.94,56.946,11.23,-34.33,24.35,-55.35
2.717836856842041,0.092,0.223,0.918,-25.94,56.946,11.23,-33.78,24.67,-55.41
2.721933126449585,0.096,0.223,0.896,-29.663,51.575,18.738,-33.56,24.64,-55.36
2.721933126449585,0.093,0.221,0.884,-37.598,47.668,27.1,-33.91,24.76,-55.41
2.721933126449585,0.093,0.221,0.884,-37.598,47.668,27.1,-33.91,24.76,-55.41
2.721933126449585,0.093,0.226,0.885,-40.527,41.321,35.095,-33.43,24.95,-55.33
2.721933126449585,0.093,0.226,0.885,-40.527,41.321,35.095,-33.78,25.26,-55.19
2.721933126449585,0.092,0.24,0.893,-43.579,31.921,42.236,-33.27,25.18,-55.73
2.7259817123413086,0.092,0.24,0.893,-43.579,31.921,42.236,-33.95,25.21,-55.03
2.775860548019409,0.089,0.255,0.908,-57.8,24.292,45.044,-33.75,25.71,-55.55
2.775860548019409,0.088,0.266,0.929,-75.989,19.531,44.8,-33.75,25.71,-55.33
2.775860548019409,0.088,0.266,0.929,-75.989,19.531,44.8,-33.63,26.06,-55.33
2.775860548019409,0.077,0.268,0.952,-84.595,19.226,42.297,-33.67,25.65,-55.89
2.775860548019409,0.077,0.268,0.952,-84.595,19.226,42.297,-33.1,26.05,-56.2
2.779874563217163,0.073,0.265,0.975,-76.965,20.325,37.537,-33.37,26.31,-55.92
2.779874563217163,0.073,0.265,0.975,-76.965,20.325,37.537,-33.37,26.31,-55.92
2.779874563217163,0.074,0.264,0.992,-57.373,21.118,31.799,-33.63,26.34,-56.02
2.779874563217163,0.067,0.262,0.998,-41.443,23.437,24.475,-33.1,26.16,-55.96
2.779874563217163,0.067,0.262,0.998,-41.443,23.437,24.475,-33.56,26.59,-55.99
2.833249568939209,0.063,0.259,0.991,-36.621,29.236,17.517,-33.4,27.16,-56.26
2.833249568939209,0.063,0.259,0.991,-36.621,29.236,17.517,-32.55,26.94,-56.36
2.833249568939209,0.066,0.251,0.98,-40.283,37.048,12.085,-32.9,27.26,-55.73
2.833249568939209,0.066,0.251,0.98,-40.283,37.048,12.085,-32.9,27.26,-55.73
2.8372600078582764,0.073,0.242,0.968,-44.006,39.551,9.766,-32.91,27.24,-55.95
2.8372600078582764,0.079,0.234,0.954,-39.673,36.255,10.193,-33.05,27.38,-55.66
2.8372600078582764,0.079,0.234,0.954,-39.673,36.255,10.193,-32.62,27.42,-55.92
2.8372600078582764,0.079,0.227,0.943,-24.109,26.794,8.85,-32.86,27.61,-56.17
2.8372600078582764,0.079,0.227,0.943,-24.109,26.794,8.85,-32.86,27.61,-56.17
2.8372600078582764,0.077,0.222,0.936,-0.061,14.099,4.883,-32.9,27.73,-55.35
2.890263557434082,0.077,0.222,0.936,-0.061,14.099,4.883,-32.87,27.61,-55.33
2.890263557434082,0.077,0.218,0.936,19.104,2.075,0.488,-32.75,27.52,-55.29
2.890263557434082,0.077,0.218,0.936,25.208,-8.728,-3.662,-32.89,27.52,-55.13
2.894287586212158,0.079,0.205,0.949,25.208,-8.728,-3.662,-32.55,27.19,-54.98
2.894287586212158,0.073,0.183,0.972,33.508,-18.372,-6.836,-32.55,27.3,-55.36
2.894287586212158,0.073,0.183,0.972,33.508,-18.372,-6.836,-32.91,27.3,-55.36
2.894287586212158,0.063,0.162,0.998,43.823,-23.499,-9.827,-32.78,26.83,-55.83
2.894287586212158,0.063,0.162,0.998,43.823,-23.499,-9.827,-32.78,27.27,-56.02
2.894287586212158,0.061,0.146,1.021,42.114,-24.414,-11.963,-32.52,26.95,-55.73
2.898378610610962,0.061,0.146,1.021,42.114,-24.414,-11.963,-32.52,26.95,-55.73
2.944230079650879,0.05,0.126,1.039,29.602,-19.104,-12.085,-33.15,26.82,-55.1
2.9483630657196045,0.041,0.108,1.051,16.113,-9.583,-10.132,-33.62,26.78,-54.76
2.9483630657196045,0.041,0.108,1.051,16.113,-9.583,-10.132,-32.77,26.78,-55.8
2.9483630657196045,0.04,0.098,1.053,6.287,1.77,-5.676,-33.03,26.91,-55.41
2.9483630657196045,0.04,0.098,1.053,6.287,1.77,-5.676,-32.72,26.85,-54.84
2.9483630657196045,0.034,0.099,1.042,-3.54,14.282,-0.549,-32.71,27.0,-54.9
2.9483630657196045,0.034,0.099,1.042,-3.54,14.282,-0.549,-32.71,27.0,-54.9
2.952374219894409,0.035,0.11,1.023,-13.733,24.658,4.395,-32.91,26.75,-55.29
2.952374219894409,0.046,0.126,0.999,-18.738,30.457,9.338,-32.48,26.85,-55.42
2.952374219894409,0.046,0.126,0.999,-18.738,30.457,9.338,-32.77,26.95,-55.22
3.002103567123413,0.057,0.145,0.978,-13.55,29.846,13.062,-32.48,27.24,-55.41
3.002103567123413,0.057,0.145,0.978,-13.55,29.846,13.062,-32.48,27.24,-55.41
3.006113290786743,0.073,0.161,0.966,0.488,22.4,14.587,-32.34,26.98,-54.62
3.006113290786743,0.073,0.161,0.966,0.488,22.4,14.587,-32.32,27.23,-54.43
3.0075008869171143,0.095,0.175,0.971,13.794,8.362,15.686,-32.53,27.07,-55.25
3.0075008869171143,0.095,0.175,0.971,19.043,-8.057,17.639,-32.59,26.85,-55.07
3.0075008869171143,0.111,0.185,0.992,19.043,-8.057,17.639,-32.61,26.81,-55.52
3.0075008869171143,0.111,0.189,1.027,19.043,-21.362,20.996,-32.61,26.81,-55.2
3.0075008869171143,0.111,0.189,1.027,19.043,-21.362,20.996,-32.68,26.43,-55.2
3.010507583618164,0.094,0.189,1.066,16.907,-27.1,24.597,-32.96,26.24,-55.1
3.0606048107147217,0.094,0.189,1.066,16.907,-27.1,24.597,-32.93,26.79,-55.1
3.0606048107147217,0.075,0.188,1.092,13.855,-25.146,26.245,-33.5,26.22,-55.13
3.0606048107147217,0.075,0.188,1.092,13.855,-25.146,26.245,-33.5,26.22,-55.13
3.0606048107147217,0.04,0.192,1.1,4.7,-9.338,24.048,-33.38,26.37,-54.82
3.0646190643310547,0.012,0.202,1.1,-10.864,12.939,20.386,-32.99,26.6,-54.24
3.0646190643310547,0.012,0.202,1.1,-10.864,12.939,20.386,-33.31,26.47,-54.82
3.065624713897705,0.017,0.213,1.084,-20.386,35.95,17.944,-33.21,26.59,-54.34
3.065624713897705,0.017,0.213,1.084,-20.386,35.95,17.944,-32.96,26.51,-53.89
3.065624713897705,0.021,0.225,1.055,-22.644,57.19,15.015,-32.94,26.86,-53.93
3.065624713897705,0.021,0.225,1.055,-22.644,57.19,15.015,-32.94,26.86,-53.93
3.1172871589660645,0.035,0.235,1.024,-23.376,67.078,11.108,-32.62,26.81,-53.76
3.1172871589660645,0.035,0.235,1.024,-23.254,66.711,10.437,-32.26,26.66,-53.62
3.1172871589660645,0.046,0.232,0.994,-23.254,66.711,10.437,-32.04,26.48,-53.6
3.1172871589660645,0.045,0.219,0.975,-23.621,59.692,10.681,-31.83,27.26,-53.39
3.121342182159424,0.045,0.219,0.975,-23.621,59.692,10.681,-31.83,27.26,-53.39
3.121342182159424,0.06,0.206,0.975,-10.376,42.603,12.512,-31.95,27.04,-53.35
3.121342182159424,0.06,0.206,0.975,-10.376,42.603,12.512,-31.92,27.16,-53.19
3.121342182159424,0.076,0.201,0.992,7.019,22.156,17.09,-32.32,26.91,-53.33
3.121342182159424,0.076,0.201,0.992,7.019,22.156,17.09,-31.99,27.14,-53.23
3.121342182159424,0.074,0.197,1.025,2.319,4.028,23.987,-32.01,26.82,-52.94
3.174020528793335,0.065,0.193,1.066,-2.197,-5.127,28.32,-32.01,26.82,-52.94
3.174020528793335,0.065,0.193,1.066,-2.197,-5.127,28.32,-32.13,26.92,-52.85
3.174020528793335,0.057,0.203,1.101,10.559,-4.578,30.212,-32.43,26.76,-53.14
3.174020528793335,0.057,0.203,1.101,10.559,-4.578,30.212,-32.11,26.86,-53.73
3.174020528793335,0.041,0.229,1.117,5.92,5.798,28.809,-32.72,26.73,-52.75
3.178067922592163,0.041,0.229,1.117,5.92,5.798,28.809,-32.72,26.73,-52.75
3.178067922592163,0.03,0.249,1.119,-21.912,24.048,23.987,-32.46,26.98,-52.85
3.178067922592163,0.017,0.256,1.118,-32.104,43.762,16.174,-32.4,26.7,-52.84
3.178067922592163,0.017,0.256,1.118,-32.104,43.762,16.174,-31.86,26.75,-52.63
3.178067922592163,0.01,0.262,1.109,-11.475,58.105,5.92,-31.44,27.13,-52.63
3.230863332748413,0.01,0.262,1.109,-11.475,58.105,5.92,-31.44,27.13,-52.09
3.230863332748413,0.011,0.272,1.085,13.245,67.017,-4.639,-31.29,27.05,-52.1
3.230863332748413,0.011,0.272,1.085,13.245,67.017,-4.639,-31.29,27.05,-52.1
3.235145092010498,-0.006,0.27,1.056,24.353,71.472,-16.174,-31.28,27.01,-51.24
3.235145092010498,-0.006,0.27,1.056,42.236,66.895,-27.527,-31.04,27.27,-51.24
3.235145092010498,-0.015,0.252,1.033,1.605,0.0,0.0,-30.62,26.82,-50.85
3.235145092010498,-0.01,0.232,1.012,73.364,57.007,-34.302,-30.31,27.2,-51.02
3.235145092010498,-0.01,0.232,1.012,73.364,57.007,-34.302,-30.31,27.2,-51.02
3.235145092010498,0.009,0.227,0.996,69.763,50.537,-33.875,-30.21,27.14,-50.69
3.2391557693481445,0.009,0.227,0.996,69.763,50.537,-33.875,-29.95,27.02,-49.8
3.290357828140259,0.025,0.21,0.997,9.46,47.058,-25.33,-29.9,27.08,-50.06
3.290357828140259,0.025,0.21,0.997,9.46,47.058,-25.33,-30.06,26.82,-49.5
3.290357828140259,0.019,0.164,1.029,-42.664,54.688,-10.132,-29.71,27.08,-49.74
3.290357828140259,-0.016,0.135,1.061,-57.556,65.674,9.827,-29.71,27.26,-49.65
3.290357828140259,-0.016,0.135,1.061,-57.556,65.674,9.827,-29.38,27.26,-49.65
3.290357828140259,-0.064,0.142,1.067,-76.599,81.909,22.156,-29.48,27.61,-49.5
3.294419765472412,-0.064,0.142,1.067,-76.599,81.909,22.156,-29.19,27.78,-48.93
3.294419765472412,-0.096,0.16,1.064,-101.196,100.83,27.405,-29.07,28.02,-49.06
3.294419765472412,-0.096,0.16,1.064,-101.196,100.83,27.405,-29.07,28.02,-49.06
3.294419765472412,-0.124,0.178,1.048,-107.178,118.774,28.992,-29.1,28.35,-48.92
3.3482954502105713,-0.142,0.196,1.02,-105.225,134.338,27.71,-28.63,28.37,-48.54
3.3499398231506348,-0.142,0.196,1.02,-105.225,134.338,27.71,-28.68,28.66,-47.78
3.3509438037872314,-0.135,0.212,0.984,-103.76,141.846,21.362,-28.28,29.33,-47.6
3.3509438037872314,-0.135,0.212,0.984,-103.76,141.846,21.362,-27.99,29.11,-47.09
3.3523356914520264,-0.158,0.233,0.936,-102.112,151.794,19.409,-27.61,29.14,-46.43
3.3523356914520264,-0.158,0.233,0.936,-102.112,151.794,19.409,-27.61,29.14,-46.43
3.3523356914520264,-0.21,0.257,0.876,-124.39,158.691,15.381,-27.26,29.73,-46.19
3.3523356914520264,-0.227,0.264,0.837,-114.807,151.001,3.296,-26.92,30.25,-46.2
3.3523356914520264,-0.227,0.264,0.837,-114.807,151.001,3.296,-26.57,30.23,-45.67
3.3523356914520264,-0.233,0.26,0.814,-33.875,118.286,-14.832,-26.44,29.77,-45.31
3.410201072692871,-0.233,0.26,0.814,-33.875,118.286,-14.832,-26.44,29.77,-45.31
3.410201072692871,-0.247,0.258,0.788,52.307,77.271,-36.499,-26.13,30.08,-44.69
3.410201072692871,-0.247,0.258,0.788,52.307,77.271,-36.499,-25.78,30.21,-44.69
3.410201072692871,-0.287,0.232,0.789,98.633,35.645,-62.805,-25.97,30.43,-44.59
3.4142744541168213,-0.328,0.181,0.819,148.804,4.211,-80.322,-25.81,30.55,-43.91
3.4142744541168213,-0.328,0.181,0.819,148.804,4.211,-80.322,-25.74,30.36,-43.93
3.4142744541168213,-0.338,0.144,0.855,203.918,-20.752,-92.59,-25.58,30.34,-43.69
3.4142744541168213,-0.338,0.144,0.855,203.918,-20.752,-92.59,-25.58,30.34,-43.69
3.4142744541168213,-0.343,0.143,0.883,243.042,-37.231,-100.647,-25.55,30.04,-43.36
3.4142744541168213,-0.343,0.143,0.883,234.802,-43.945,-107.91,-25.68,29.92,-43.47
3.4682676792144775,-0.356,0.154,0.907,234.802,-43.945,-107.91,-25.87,29.82,-43.36
3.4682676792144775,-0.369,0.148,0.94,203.735,-39.307,-115.051,-25.94,29.98,-43.28
3.4682676792144775,-0.369,0.148,0.94,203.735,-39.307,-115.051,-25.94,29.98,-43.28
3.4682676792144775,-0.378,0.127,0.977,193.542,-28.992,-118.103,-25.9,30.05,-43.42
3.4682676792144775,-0.378,0.127,0.977,193.542,-28.992,-118.103,-26.07,30.39,-43.03
3.472285270690918,-0.366,0.108,1.012,181.519,-14.221,-115.601,-25.46,30.52,-43.61
3.472285270690918,-0.366,0.108,1.012,181.519,-14.221,-115.601,-25.62,30.44,-43.5
3.472285270690918,-0.337,0.092,1.052,137.268,-1.648,-105.347,-25.59,30.88,-42.87
3.472285270690918,-0.318,0.065,1.094,90.027,9.827,-87.28,-25.46,30.88,-42.78
3.472285270690918,-0.318,0.065,1.094,90.027,9.827,-87.28,-25.46,30.88,-42.78
3.5257537364959717,-0.313,0.049,1.132,78.979,16.235,-70.313,-25.68,31.12,-42.36
3.5257537364959717,-0.313,0.049,1.132,78.979,16.235,-70.313,-25.29,31.32,-42.44
3.5257537364959717,-0.303,0.066,1.155,114.868,16.296,-56.824,-24.88,30.97,-42.24
3.5257537364959717,-0.303,0.066,1.155,114.868,16.296,-56.824,-24.86,31.03,-42.03
3.529763698577881,-0.301,0.133,1.16,164.917,16.968,-43.701,-24.96,30.72,-41.33
3.529763698577881,-0.334,0.227,1.145,145.203,23.743,-33.264,-25.27,30.5,-41.7
3.529763698577881,-0.334,0.227,1.145,145.203,23.743,-33.264,-25.27,30.5,-41.7
3.529763698577881,-0.351,0.293,1.125,83.069,43.274,-29.785,-24.82,30.65,-41.6
3.529763698577881,-0.351,0.293,1.125,83.069,43.274,-29.785,-24.7,30.72,-41.07
3.529763698577881,-0.363,0.335,1.097,70.068,74.768,-28.015,-24.73,30.88,-40.97
3.583404779434204,-0.363,0.335,1.097,70.068,74.768,-28.015,-24.73,30.88,-40.41
3.584439754486084,-0.393,0.394,1.038,80.933,116.333,-32.898,-24.74,31.06,-39.59
3.584439754486084,-0.41,0.459,0.953,34.668,160.828,-45.959,-24.74,31.06,-39.59
3.5854969024658203,-0.41,0.459,0.953,34.668,160.828,-45.959,-24.55,31.06,-38.45
3.5865230560302734,-0.44,0.493,0.851,-35.4,196.838,-61.768,-23.95,31.42,-38.19
3.5865230560302734,-0.44,0.493,0.851,-35.4,196.838,-61.768,-23.75,31.75,-37.26
3.587573766708374,-0.527,0.525,0.733,-33.997,215.393,-73.792,-23.72,31.85,-36.74
3.587573766708374,-0.527,0.525,0.733,-33.997,215.393,-73.792,-23.72,31.85,-36.74
3.587573766708374,-0.539,0.577,0.611,53.772,206.177,-86.426,-23.28,32.42,-35.97
3.587573766708374,-0.502,0.642,0.501,172.363,165.955,-107.117,-23.28,32.64,-35.25
3.637589931488037,-0.502,0.642,0.501,172.363,165.955,-107.117,-23.28,33.02,-34.77
3.637589931488037,-0.489,0.699,0.422,261.719,107.239,-135.559,-22.6,33.47,-34.81
3.6416141986846924,-0.489,0.699,0.422,261.719,107.239,-135.559,-22.52,33.82,-34.03
3.6416141986846924,-0.437,0.723,0.387,349.548,36.743,-170.41,-22.57,34.0,-33.69
3.6416141986846924,-0.437,0.723,0.387,461.792,-31.372,-200.317,-22.57,34.0,-33.69
3.6416141986846924,-0.404,0.726,0.38,461.792,-31.372,-200.317,-22.87,34.71,-33.56
3.6416141986846924,-0.356,0.701,0.422,484.436,-83.313,-220.642,-22.92,35.55,-34.07
3.6416141986846924,-0.356,0.701,0.422,484.436,-83.313,-220.642,-22.76,36.38,-34.39
3.6456832885742188,-0.357,0.593,0.536,365.112,-121.704,-231.75,-22.57,36.67,-35.06
3.6456832885742188,-0.357,0.593,0.536,365.112,-121.704,-231.75,-22.57,36.67,-35.06
3.6948776245117188,-0.48,0.397,0.678,304.993,-133.728,-226.501,-22.9,37.53,-35.74
3.698929786682129,-0.48,0.397,0.678,304.993,-133.728,-226.501,-22.84,38.32,-36.19
3.698929786682129,-0.58,0.242,0.805,367.432,-115.173,-211.06,-23.37,38.37,-36.69
3.698929786682129,-0.653,0.174,0.876,340.637,-79.712,-191.406,-23.21,38.8,-36.93
3.698929786682129,-0.653,0.174,0.876,340.637,-79.712,-191.406,-23.21,39.59,-37.17
3.698929786682129,-0.672,0.1,0.933,151.489,-16.052,-177.856,-23.78,39.97,-36.7
3.698929786682129,-0.672,0.1,0.933,151.489,-16.052,-177.856,-23.78,39.97,-36.7
3.702939510345459,-0.691,-0.02,0.973,-8.423,41.748,-139.404,-23.74,40.22,-36.33
3.702939510345459,-0.691,-0.02,0.973,-8.423,41.748,-139.404,-23.37,40.32,-36.19
3.702939510345459,-0.752,-0.087,0.942,-31.433,100.037,-88.44,-23.12,40.43,-35.69
3.752699851989746,-0.765,-0.016,0.848,-71.533,141.113,-38.147,-22.7,40.37,-35.22
3.752699851989746,-0.765,-0.016,0.848,-71.533,141.113,-38.147,-22.7,40.37,-35.22
3.752699851989746,-0.76,0.112,0.716,-176.636,170.593,-2.441,-22.98,40.63,-35.06
3.756744146347046,-0.76,0.112,0.716,-176.636,170.593,-2.441,-23.11,40.69,-33.84
3.756744146347046,-0.745,0.226,0.603,-200.317,177.917,22.644,-23.21,40.97,-33.24
3.756744146347046,-0.745,0.226,0.603,-89.905,171.753,40.833,-22.74,40.85,-32.37
3.756744146347046,-0.752,0.359,0.484,-89.905,171.753,40.833,-22.61,40.41,-31.69
3.756744146347046,-0.741,0.524,0.374,-9.521,159.546,35.4,-22.55,40.53,-31.06
3.756744146347046,-0.741,0.524,0.374,-9.521,159.546,35.4,-22.55,40.53,-31.06
3.7610597610473633,-0.729,0.631,0.287,-11.658,140.442,13.672,-22.45,40.28,-30.84
3.8112993240356445,-0.729,0.631,0.287,-11.658,140.442,13.672,-22.55,40.28,-30.56
3.81230092048645,-0.746,0.637,0.235,10.559,124.573,-15.015,-22.39,40.19,-29.8
3.813598871231079,-0.746,0.637,0.235,10.559,124.573,-15.015,-22.39,40.19,-29.8
3.813598871231079,-0.744,0.626,0.197,86.06,107.788,-39.063,-22.79,40.87,-29.73
3.8146445751190186,-0.744,0.626,0.197,130.92,95.459,-44.434,-22.71,40.92,-29.73
3.8156895637512207,-0.787,0.587,0.18,130.92,95.459,-44.434,-23.09,41.08,-29.26
3.8156895637512207,-0.828,0.5,0.17,122.803,73.486,-69.519,-22.93,41.08,-29.42
3.8166913986206055,-0.828,0.5,0.17,122.803,73.486,-69.519,-22.93,41.38,-28.79
3.8170275688171387,-0.839,0.399,0.165,112.488,59.875,-85.876,-23.11,42.18,-28.49
3.8178536891937256,-0.839,0.399,0.165,112.488,59.875,-85.876,-23.11,42.18,-28.49
3.868103265762329,-0.867,0.287,0.189,134.766,44.617,-82.397,-23.14,42.58,-28.18
3.868103265762329,-0.867,0.287,0.189,134.766,44.617,-82.397,-23.57,42.75,-28.52
3.868103265762329,-0.887,0.215,0.201,146.545,31.189,-66.101,-23.12,42.84,-28.03
3.868103265762329,-0.913,0.212,0.198,110.718,19.409,-42.725,-23.0,42.59,-28.05
3.868103265762329,-0.913,0.212,0.198,110.718,19.409,-42.725,-23.0,42.59,-28.05
3.868103265762329,-0.921,0.254,0.2,48.645,11.719,-22.095,-23.08,42.94,-27.99
3.8721163272857666,-0.921,0.254,0.2,48.645,11.719,-22.095,-23.18,43.1,-28.14
3.8721163272857666,-0.905,0.3,0.223,21.667,-5.615,-13.428,-23.36,42.96,-27.97
3.8721163272857666,-0.905,0.3,0.223,21.667,-5.615,-13.428,-22.92,42.88,-29.03
3.8721163272857666,-0.884,0.338,0.254,88.135,-13.794,-9.399,-22.87,43.07,-28.41
3.9215826988220215,-0.883,0.402,0.274,136.047,-11.719,-13.123,-23.28,42.85,-28.62
3.9215826988220215,-0.883,0.402,0.274,136.047,-11.719,-13.123,-23.28,42.85,-28.62
3.9256041049957275,-0.934,0.476,0.289,83.679,1.953,-22.888,-22.98,42.97,-29.44
3.9256041049957275,-0.934,0.476,0.289,83.679,1.953,-22.888,-23.34,43.12,-29.1
3.9256041049957275,-1.07,0.532,0.308,22.156,17.273,-24.17,-23.3,43.29,-28.81
3.9256041049957275,-1.07,0.532,0.308,22.156,17.273,-24.17,-23.3,43.15,-28.97
3.9256041049957275,-0.872,0.542,0.355,23.01,33.691,-26.794,-23.17,43.53,-28.9
3.9256041049957275,-0.606,0.483,0.387,83.252,41.565,-51.636,-23.17,43.53,-28.9
3.9296154975891113,-0.606,0.483,0.387,83.252,41.565,-51.636,-23.59,44.01,-29.22
3.9296154975891113,-0.761,0.422,0.377,160.156,67.261,-79.773,-23.6,44.04,-28.9
3.982490062713623,-0.761,0.422,0.377,160.156,67.261,-79.773,-23.94,44.69,-28.6
3.982490062713623,-0.888,0.363,0.35,128.296,91.553,-83.557,-23.76,45.02,-27.68
3.982490062713623,-0.888,0.363,0.35,128.296,91.553,-83.557,-23.76,45.02,-27.68
3.982490062713623,-0.891,0.27,0.298,19.653,115.54,-75.623,-23.91,45.51,-27.29
3.982490062713623,-0.903,0.19,0.237,-35.767,134.766,-62.378,-23.93,45.63,-26.97
3.982490062713623,-0.903,0.19,0.237,-35.767,134.766,-62.378,-23.79,45.41,-26.85
3.98649525642395,-0.899,0.163,0.163,-18.677,138.794,-44.006,-24.33,45.51,-25.77
3.98649525642395,-0.899,0.163,0.163,-18.677,138.794,-44.006,-24.35,45.63,-25.05
3.98649525642395,-0.891,0.186,0.072,6.592,138.306,-24.719,-24.42,45.67,-25.12
3.98649525642395,-0.891,0.186,0.072,6.592,138.306,-24.719,-24.42,45.67,-25.12
4.040035247802734,-0.896,0.234,-0.013,-5.31,136.292,-14.16,-24.57,45.91,-24.26
4.040035247802734,-0.916,0.271,-0.074,-26.794,125.488,-9.277,-24.61,45.85,-23.72
4.040035247802734,-0.916,0.271,-0.074,-26.794,125.488,-9.277,-25.08,46.02,-23.41
4.040035247802734,-0.944,0.293,-0.122,-7.812,107.239,-2.38,-24.99,45.97,-22.86
4.040035247802734,-0.944,0.293,-0.122,-7.812,107.239,-2.38,-24.99,45.97,-22.86
4.044089078903198,-0.944,0.322,-0.17,39.429,93.384,5.005,-25.08,46.05,-22.96
4.044089078903198,-0.944,0.322,-0.17,39.429,93.384,5.005,-25.31,45.89,-22.96
4.044089078903198,-0.926,0.361,-0.205,57.8,80.444,7.751,-25.2,45.82,-22.58
4.044089078903198,-0.889,0.393,-0.232,38.574,64.026,8.972,-25.01,46.13,-22.22
4.044089078903198,-0.889,0.393,-0.232,38.574,64.026,8.972,-24.9,45.95,-22.27
4.096794366836548,-0.875,0.404,-0.241,16.296,46.814,7.019,-25.08,45.83,-22.13
4.096794366836548,-0.875,0.404,-0.241,16.296,46.814,7.019,-25.08,45.83,-22.13
4.096794366836548,-0.891,0.394,-0.238,20.63,24.475,1.587,-25.02,45.91,-22.43
4.100822448730469,-0.891,0.394,-0.238,40.466,9.399,-4.456,-25.04,46.2,-22.23
4.100822448730469,-0.882,0.37,-0.229,40.466,9.399,-4.456,-25.37,45.94,-22.19
4.100822448730469,-0.894,0.324,-0.194,46.692,-5.005,-11.841,-25.14,45.98,-22.11
4.100822448730469,-0.894,0.324,-0.194,46.692,-5.005,-11.841,-25.14,45.98,-22.11
4.100822448730469,-0.933,0.255,-0.146,49.927,-18.921,-14.648,-25.23,45.88,-22.57
4.100822448730469,-0.933,0.255,-0.146,49.927,-18.921,-14.648,-25.39,46.0,-22.79
4.104877233505249,-0.953,0.196,-0.093,65.857,-23.682,-7.019,-25.45,46.33,-22.42
4.154677152633667,-0.953,0.196,-0.093,65.857,-23.682,-7.019,-25.56,46.17,-23.22
4.154677152633667,-0.97,0.185,-0.057,66.833,-22.461,5.493,-25.3,46.45,-23.31
4.154677152633667,-0.988,0.233,-0.043,30.396,-16.235,18.127,-24.96,46.58,-22.68
4.158711671829224,-0.988,0.233,-0.043,30.396,-16.235,18.127,-24.96,46.58,-22.68
4.158711671829224,-0.982,0.314,-0.045,-11.902,-12.207,25.879,-24.86,46.46,-22.57
4.158711671829224,-0.982,0.314,-0.045,-11.902,-12.207,25.879,-24.79,46.29,-22.73
4.158711671829224,-0.959,0.398,-0.048,-16.052,-10.498,25.024,-24.95,46.26,-23.56
4.158711671829224,-0.959,0.398,-0.048,11.414,-12.817,17.517,-24.82,46.26,-23.28
4.158711671829224,-0.942,0.46,-0.044,11.414,-12.817,17.517,-24.69,46.0,-23.3
4.162775278091431,-0.915,0.483,-0.034,35.767,-12.817,4.211,-24.69,46.0,-23.3
4.211843729019165,-0.915,0.483,-0.034,35.767,-12.817,4.211,-24.88,46.17,-23.56
4.211843729019165,-0.89,0.459,-0.013,42.603,-8.545,-9.705,-24.63,46.21,-23.52
4.2158684730529785,-0.89,0.459,-0.013,42.603,-8.545,-9.705,-24.74,46.35,-23.75
4.2158684730529785,-0.892,0.4,0.009,42.969,0.916,-19.287,-25.1,46.38,-23.4
4.2158684730529785,-0.892,0.4,0.009,42.969,0.916,-19.287,-25.1,46.38,-23.4
4.2158684730529785,-0.902,0.327,0.031,47.119,11.78,-22.095,-24.92,47.19,-23.5
4.2158684730529785,-0.907,0.268,0.038,46.387,22.827,-15.076,-25.11,46.55,-23.9
4.2158684730529785,-0.907,0.268,0.038,46.387,22.827,-15.076,-25.23,46.84,-23.03
4.2158684730529785,-0.929,0.258,0.023,23.376,34.424,-10.254,-24.7,46.81,-22.99
4.220372676849365,-0.929,0.258,0.023,23.376,34.424,-10.254,-24.96,46.67,-22.81
4.269420623779297,-0.943,0.281,-0.011,-4.456,43.274,-4.089,-25.02,47.33,-22.99
4.269420623779297,-0.943,0.281,-0.011,-4.456,43.274,-4.089,-25.02,47.33,-22.99
4.273430109024048,-0.94,0.312,-0.05,-10.498,49.377,-1.282,-25.02,46.57,-22.04
4.273430109024048,-0.933,0.346,-0.09,1.282,50.354,-2.747,-25.23,47.33,-22.33
4.273430109024048,-0.933,0.346,-0.09,1.282,50.354,-2.747,-25.4,47.12,-21.86
4.273430109024048,-0.923,0.37,-0.127,10.254,51.88,-5.92,-25.15,47.08,-22.03
4.273430109024048,-0.923,0.37,-0.127,10.254,51.88,-5.92,-25.15,47.08,-21.62
4.273430109024048,-0.923,0.376,-0.154,3.357,49.561,-10.254,-25.5,46.99,-21.56
4.277440786361694,-0.923,0.376,-0.154,3.357,49.561,-10.254,-25.4,46.99,-21.56
4.277440786361694,-0.913,0.362,-0.175,1.038,48.218,-13.55,-25.43,47.35,-21.22
4.327371835708618,-0.908,0.334,-0.181,13.55,44.495,-16.113,-25.75,47.18,-20.64
4.327371835708618,-0.908,0.334,-0.181,13.55,44.495,-16.113,-25.75,47.34,-20.48
4.327371835708618,-0.916,0.299,-0.18,30.09,34.546,-16.235,-25.71,47.22,-20.74
4.327371835708618,-0.916,0.299,-0.18,30.09,34.546,-16.235,-25.71,47.22,-20.74
4.331439733505249,-0.916,0.268,-0.181,41.138,32.898,-12.39,-25.94,47.66,-21.21
4.331439733505249,-0.916,0.268,-0.181,41.138,32.898,-12.39,-26.19,47.62,-21.29
4.331439733505249,-0.911,0.256,-0.183,30.09,34.607,-6.897,-26.02,47.49,-21.46
4.331439733505249,-0.916,0.26,-0.189,5.92,36.865,-0.732,-25.91,47.82,-21.43
4.331439733505249,-0.916,0.26,-0.189,5.92,36.865,-0.732,-26.29,47.73,-20.81
4.331439733505249,-0.921,0.269,-0.195,-4.456,36.377,4.272,-26.16,47.5,-20.05
4.385030746459961,-0.921,0.269,-0.195,-4.456,36.377,4.272,-26.16,47.5,-20.05
4.385030746459961,-0.914,0.278,-0.204,6.104,36.072,6.409,-26.63,47.66,-20.93
4.385030746459961,-0.914,0.278,-0.204,6.104,36.072,6.409,-26.43,47.88,-20.36
4.385030746459961,-0.919,0.285,-0.209,13.55,34.851,5.981,-26.7,47.53,-19.89
4.385030746459961,-0.921,0.28,-0.212,7.812,31.982,5.005,-26.25,47.76,-19.47
4.385030746459961,-0.921,0.28,-0.212,7.812,31.982,5.005,-26.25,47.76,-19.47
4.389110803604126,-0.921,0.268,-0.214,6.287,32.776,6.836,-26.21,47.59,-19.56
4.389110803604126,-0.921,0.268,-0.214,6.287,32.776,6.836,-26.56,47.49,-19.73
4.389110803604126,-0.928,0.263,-0.216,9.766,33.081,10.254,-26.69,47.14,-19.61
4.389110803604126,-0.928,0.263,-0.216,8.667,32.288,14.404,-26.76,47.27,-19.45
4.4392194747924805,-0.929,0.268,-0.221,8.667,32.288,14.404,-26.51,47.4,-19.2
4.4392194747924805,-0.922,0.277,-0.229,3.967,31.982,18.982,-26.51,47.16,-19.07
4.443540334701538,-0.922,0.277,-0.229,3.967,31.982,18.982,-26.63,47.16,-19.07
4.443540334701538,-0.903,0.286,-0.241,4.333,34.485,22.522,-26.45,47.52,-18.74
4.443540334701538,-0.903,0.286,-0.241,4.333,34.485,22.522,-26.47,47.47,-18.69
4.443540334701538,-0.886,0.301,-0.255,2.258,36.865,22.278,-26.67,47.0,-19.2
4.443540334701538,-0.886,0.301,-0.255,2.258,36.865,22.278,-26.67,47.0,-19.2
4.443540334701538,-0.871,0.311,-0.267,-5.676,35.278,18.25,-26.7,46.76,-19.28
4.443540334701538,-0.877,0.309,-0.274,-1.892,31.921,16.235,-26.86,46.76,-19.28
4.447550296783447,-0.877,0.309,-0.274,-1.892,31.921,16.235,-27.07,46.96,-18.5
4.497257471084595,-0.896,0.303,-0.277,12.146,27.222,16.541,-26.89,47.09,-18.23
4.497257471084595,-0.896,0.303,-0.277,12.146,27.222,16.541,-27.35,47.15,-18.46
4.497257471084595,-0.892,0.294,-0.28,16.663,23.071,17.212,-26.91,46.89,-18.46
4.497257471084595,-0.892,0.294,-0.28,16.663,23.071,17.212,-26.91,46.89,-18.46
4.501343488693237,-0.893,0.284,-0.272,8.972,19.653,19.714,-26.7,46.86,-18.36
4.501343488693237,-0.902,0.272,-0.261,7.507,15.259,26.184,-26.97,46.67,-17.96
4.501343488693237,-0.902,0.272,-0.261,7.507,15.259,26.184,-26.86,46.71,-18.42
4.501343488693237,-0.904,0.274,-0.25,20.447,15.503,34.058,-26.28,46.43,-18.06
4.501343488693237,-0.904,0.274,-0.25,20.447,15.503,34.058,-26.59,46.16,-18.4
4.501343488693237,-0.902,0.306,-0.247,23.437,17.334,41.931,-26.45,46.32,-18.09
4.554836750030518,-0.902,0.306,-0.247,7.263,23.132,46.265,-26.45,46.32,-18.09
4.554836750030518,-0.887,0.357,-0.252,1.605,0.0,0.0,-26.57,46.13,-17.99
4.554836750030518,-0.871,0.41,-0.257,-2.93,27.71,44.495,-26.62,46.27,-17.83
4.554836750030518,-0.871,0.41,-0.257,-2.93,27.71,44.495,-26.64,46.13,-17.8
4.554836750030518,-0.855,0.457,-0.264,7.385,33.813,39.856,-26.21,45.91,-17.52
4.554836750030518,-0.855,0.457,-0.264,7.385,33.813,39.856,-26.21,45.91,-17.52
4.554836750030518,-0.833,0.489,-0.274,18.188,39.673,31.921,-26.25,45.89,-17.45
4.559175252914429,-0.833,0.489,-0.274,18.188,39.673,31.921,-26.25,45.89,-16.84
4.559175252914429,-0.833,0.499,-0.281,16.602,45.227,18.677,-26.7,46.01,-17.22
4.559175252914429,-0.845,0.48,-0.284,13.55,45.532,6.042,-27.08,46.3,-17.26
4.608997583389282,-0.845,0.48,-0.284,13.55,45.532,6.042,-27.42,46.04,-17.23
4.608997583389282,-0.846,0.438,-0.292,21.057,47.546,-2.197,-27.07,46.04,-17.42
4.608997583389282,-0.846,0.438,-0.292,21.057,47.546,-2.197,-27.07,46.04,-17.42
4.608997583389282,-0.838,0.397,-0.311,23.987,54.199,-4.578,-27.46,45.78,-16.59
4.613043308258057,-0.838,0.397,-0.311,23.987,54.199,-4.578,-27.16,46.54,-15.9
4.613043308258057,-0.829,0.373,-0.335,9.399,62.134,-3.662,-27.46,46.51,-16.34
4.613043308258057,-0.836,0.362,-0.355,-3.662,65.308,-2.93,-27.48,46.13,-16.12
4.613043308258057,-0.836,0.362,-0.355,-3.662,65.308,-2.93,-27.48,46.13,-16.12
4.613043308258057,-0.844,0.355,-0.372,6.592,61.462,0.854,-27.68,46.04,-15.93
4.613043308258057,-0.844,0.355,-0.372,6.592,61.462,0.854,-27.55,46.04,-15.93
4.667194366455078,-0.831,0.349,-0.382,27.344,57.678,4.395,-27.39,45.98,-15.57
4.667194366455078,-0.831,0.349,-0.382,31.006,49.622,8.301,-27.84,46.08,-15.73
4.670747756958008,-0.821,0.344,-0.389,1.605,0.0,0.0,-27.86,46.39,-15.68
4.670747756958008,-0.822,0.341,-0.398,21.301,49.683,11.414,-27.95,46.57,-15.7
4.670747756958008,-0.822,0.341,-0.398,21.301,49.683,11.414,-27.95,46.57,-15.7
4.670747756958008,-0.815,0.345,-0.406,10.01,51.331,12.451,-28.02,46.19,-15.65
4.670747756958008,-0.815,0.345,-0.406,10.01,51.331,12.451,-28.08,46.11,-15.42
4.670747756958008,-0.8,0.353,-0.417,4.883,54.688,12.207,-28.18,45.97,-14.92
4.674794435501099,-0.8,0.353,-0.417,4.883,54.688,12.207,-28.18,45.97,-15.17
4.674794435501099,-0.791,0.36,-0.432,4.517,56.885,11.292,-28.31,46.24,-14.75
4.728549957275391,-0.777,0.367,-0.455,2.747,60.181,10.071,-28.31,46.24,-14.75
4.728549957275391,-0.777,0.367,-0.455,2.747,60.181,10.071,-28.47,45.91,-14.62
4.728549957275391,-0.761,0.376,-0.483,-3.479,65.125,8.484,-28.92,46.17,-14.19
4.728549957275391,-0.761,0.376,-0.483,-3.479,65.125,8.484,-28.78,46.11,-14.03
4.728549957275391,-0.75,0.388,-0.511,-7.263,66.772,7.507,-28.78,46.08,-13.99
4.728549957275391,-0.75,0.388,-0.511,-7.263,66.772,7.507,-28.78,46.08,-13.99
4.732579708099365,-0.752,0.398,-0.543,0.671,63.904,8.057,-29.28,45.64,-13.69
4.732579708099365,-0.752,0.407,-0.577,15.259,57.678,7.141,-29.04,45.7,-13.81
4.732579708099365,-0.752,0.407,-0.577,15.259,57.678,7.141,-29.82,45.56,-13.31
4.732579708099365,-0.741,0.407,-0.603,23.01,50.354,4.456,-29.89,45.91,-13.65
4.785541772842407,-0.741,0.407,-0.603,23.01,50.354,4.456,-29.96,46.11,-12.77
4.785541772842407,-0.724,0.396,-0.623,20.752,37.659,-0.183,-29.92,46.04,-13.07
4.785541772842407,-0.724,0.396,-0.623,20.752,37.659,-0.183,-29.92,46.04,-13.07
4.785541772842407,-0.711,0.374,-0.637,17.7,25.024,-4.761,-29.52,46.02,-12.86
4.785541772842407,-0.702,0.338,-0.636,20.569,11.658,-5.859,-29.87,46.19,-13.39
4.7895567417144775,-0.702,0.338,-0.636,20.569,11.658,-5.859,-29.66,46.3,-13.2
4.7895567417144775,-0.674,0.292,-0.627,33.264,-0.305,-0.61,-29.67,46.32,-13.72
4.7895567417144775,-0.674,0.292,-0.627,33.264,-0.305,-0.61,-29.67,46.32,-13.72
4.7895567417144775,-0.691,0.255,-0.62,53.955,-4.211,14.16,-29.76,46.76,-13.81
4.7895567417144775,-0.691,0.255,-0.62,51.392,-10.132,23.926,-29.44,46.76,-13.81
4.8431291580200195,-0.761,0.237,-0.604,0.0,-10.132,23.926,-30.11,46.8,-13.67
4.8431291580200195,-0.767,0.214,-0.586,12.573,-28.931,21.179,-29.48,46.59,-13.61
4.8431291580200195,-0.767,0.214,-0.586,12.573,-28.931,21.179,-29.47,46.65,-13.53
4.8431291580200195,-0.74,0.178,-0.565,-7.935,-42.114,19.104,-29.35,46.36,-14.02
4.8431291580200195,-0.74,0.178,-0.565,-7.935,-42.114,19.104,-29.35,46.36,-14.02
4.8431291580200195,-0.766,0.151,-0.537,13.367,-51.636,25.269,-29.16,46.45,-14.47
4.84713888168335,-0.766,0.151,-0.537,13.367,-51.636,25.269,-28.59,45.97,-15.01
4.84713888168335,-0.789,0.149,-0.52,32.898,-59.814,38.879,-28.63,46.24,-15.08
4.84713888168335,-0.764,0.175,-0.517,17.09,-63.538,53.65,-28.35,45.67,-15.43
4.84713888168335,-0.764,0.175,-0.517,17.09,-63.538,53.65,-28.35,45.67,-15.43
4.900132179260254,-0.753,0.232,-0.521,-19.043,-64.453,67.078,-28.15,45.79,-14.85
4.900132179260254,-0.753,0.232,-0.521,-19.043,-64.453,67.078,-28.09,45.86,-15.21
4.900132179260254,-0.773,0.317,-0.527,-38.086,-71.411,79.59,-28.0,45.26,-16.18
4.900132179260254,-0.773,0.317,-0.527,-38.086,-71.411,79.59,-27.89,44.88,-15.68
4.900132179260254,-0.795,0.413,-0.535,-27.771,-81.055,88.013,-27.43,44.64,-16.75
4.900132179260254,-0.782,0.506,-0.532,-18.982,-94.177,86.304,-27.02,44.37,-16.91
4.904297828674316,-0.782,0.506,-0.532,-18.982,-94.177,86.304,-27.02,44.37,-16.91
4.904297828674316,-0.741,0.58,-0.523,-30.64,-105.774,78.613,-26.91,43.99,-16.52
4.904297828674316,-0.741,0.58,-0.523,-30.64,-105.774,78.613,-26.79,43.88,-17.38
4.904297828674316,-0.75,0.646,-0.502,-52.734,-112.366,66.895,-26.41,43.74,-17.61
4.953773021697998,-0.75,0.646,-0.502,-52.734,-112.366,66.895,-25.78,43.39,-18.3
4.957812309265137,-0.765,0.697,-0.459,-65.369,-126.892,54.81,-25.86,42.91,-18.47
4.957812309265137,-0.747,0.717,-0.411,-53.711,-141.846,37.598,-25.42,42.87,-18.9
4.957812309265137,-0.747,0.717,-0.411,-53.711,-141.846,37.598,-25.42,42.87,-18.9
4.957812309265137,-0.741,0.704,-0.345,-32.471,-149.109,17.883,-25.24,42.9,-20.07
4.957812309265137,-0.741,0.704,-0.345,-32.471,-149.109,17.883,-25.05,42.78,-20.86
4.961852788925171,-0.748,0.649,-0.266,-20.264,-153.259,2.258,-24.52,43.01,-20.93
4.961852788925171,-0.748,0.649,-0.266,-13.0,-146.79,-6.775,-24.66,42.93,-21.4
4.961852788925171,-0.751,0.566,-0.189,-13.0,-146.79,-6.775,-24.66,42.93,-21.4
4.961852788925171,-0.765,0.485,-0.117,-6.714,-132.202,-7.69,-24.26,42.9,-22.2
5.015540599822998,-0.765,0.485,-0.117,-6.714,-132.202,-7.69,-24.36,42.78,-22.23
5.016542434692383,-0.8,0.425,-0.061,-9.399,-115.051,-2.686,-24.2,42.87,-22.27
5.017059326171875,-0.8,0.425,-0.061,-9.399,-115.051,-2.686,-23.95,42.75,-22.71
5.017059326171875,-0.824,0.392,-0.021,-19.958,-96.802,7.324,-23.85,42.56,-23.27
5.018020153045654,-0.824,0.392,-0.021,-25.024,-77.148,18.311,-23.85,42.56,-23.53
5.019053936004639,-0.831,0.387,0.001,-25.024,-77.148,18.311,-23.9,42.82,-23.53
5.019053936004639,-0.834,0.414,0.006,-23.987,-57.312,26.428,-23.93,42.52,-23.25
5.020420074462891,-0.834,0.414,0.006,-23.987,-57.312,26.428,-23.34,42.24,-23.91
5.021171808242798,-0.833,0.463,-0.003,-31.25,-38.391,28.931,-23.59,42.09,-23.66
5.021171808242798,-0.833,0.463,-0.003,-31.25,-38.391,28.931,-23.59,42.09,-23.66
5.072390079498291,-0.826,0.517,-0.024,-49.133,-20.752,24.963,-23.62,41.79,-23.79
5.072390079498291,-0.826,0.517,-0.024,-49.133,-20.752,24.963,-23.24,41.65,-23.79
5.072390079498291,-0.822,0.562,-0.048,-65.918,-6.287,17.822,-23.33,41.77,-23.28
5.072390079498291,-0.83,0.589,-0.071,-72.327,2.136,11.047,-23.37,41.74,-23.14
5.076433420181274,-0.83,0.589,-0.071,-72.327,2.136,11.047,-23.4,41.83,-23.22
5.076433420181274,-0.835,0.593,-0.093,-71.899,4.028,2.502,-23.41,41.39,-23.0
5.076433420181274,-0.835,0.593,-0.093,-71.899,4.028,2.502,-23.41,41.39,-23.0
5.076433420181274,-0.826,0.568,-0.112,-74.646,3.601,-6.714,-24.04,41.42,-23.28
5.076433420181274,-0.826,0.568,-0.112,-74.646,3.601,-6.714,-23.76,41.45,-23.68
5.076433420181274,-0.814,0.521,-0.13,-82.886,6.165,-13.55,-23.71,41.35,-23.34
5.130047082901001,-0.807,0.469,-0.143,-95.215,9.827,-14.648,-23.4,41.25,-23.28
5.130047082901001,-0.807,0.469,-0.143,-95.215,9.827,-14.648,-23.87,41.25,-22.95
5.130047082901001,-0.807,0.427,-0.159,-99.792,9.583,-7.935,-23.11,41.11,-23.3
5.130047082901001,-0.807,0.427,-0.159,-99.792,9.583,-7.935,-23.11,41.11,-23.3
5.130047082901001,-0.804,0.41,-0.183,-89.661,7.324,5.127,-23.27,40.81,-23.05
5.130047082901001,-0.804,0.41,-0.183,-89.661,7.324,5.127,-23.46,40.65,-22.8
5.134057998657227,-0.797,0.428,-0.211,-77.942,0.61,18.433,-23.44,40.51,-22.6
5.134057998657227,-0.785,0.46,-0.238,-74.158,-10.254,24.414,-22.95,40.7,-22.67
5.134057998657227,-0.785,0.46,-0.238,-74.158,-10.254,24.414,-22.95,40.7,-22.67
5.134057998657227,-0.78,0.476,-0.251,-74.097,-23.804,22.705,-23.15,40.38,-22.48
5.183667898178101,-0.78,0.476,-0.251,-74.097,-23.804,22.705,-23.37,40.38,-22.2
5.187870025634766,-0.782,0.469,-0.25,-68.848,-38.147,22.644,-23.15,40.16,-22.92
5.187870025634766,-0.782,0.469,-0.25,-67.261,-52.185,25.513,-23.4,40.25,-23.36
5.187870025634766,-0.786,0.453,-0.237,-67.261,-52.185,25.513,-23.33,39.77,-22.96
5.187870025634766,-0.794,0.439,-0.216,-75.134,-69.519,30.945,-22.86,39.64,-23.88
5.187870025634766,-0.794,0.439,-0.216,-75.134,-69.519,30.945,-22.86,39.64,-23.88
5.187870025634766,-0.81,0.435,-0.187,-87.158,-85.51,38.757,-23.22,39.52,-24.04
5.19231390953064,-0.81,0.435,-0.187,-87.158,-85.51,38.757,-22.96,38.85,-24.16
5.19231390953064,-0.829,0.451,-0.146,-105.957,-104.98,48.95,-22.87,39.11,-25.42
5.19231390953064,-0.829,0.451,-0.146,-105.957,-104.98,48.95,-22.87,39.11,-25.78
5.242013931274414,-0.819,0.479,-0.096,-121.521,-125.366,59.509,-22.96,38.23,-26.29
5.242013931274414,-0.799,0.51,-0.039,-119.934,-142.456,67.261,-22.96,38.23,-26.29
5.242013931274414,-0.799,0.51,-0.039,-119.934,-142.456,67.261,-22.74,38.31,-26.97
5.246484756469727,-0.802,0.535,0.019,-117.737,-154.968,73.914,-22.55,37.85,-27.58
5.246484756469727,-0.802,0.535,0.019,-117.737,-154.968,73.914,-22.83,37.53,-27.73
5.246484756469727,-0.727,0.561,0.095,-151.001,-161.438,72.693,-22.51,37.18,-28.75
5.246484756469727,-0.727,0.561,0.095,-176.331,-180.298,78.125,-22.51,36.51,-29.14
5.246484756469727,-0.699,0.567,0.18,-176.331,-180.298,78.125,-22.51,36.51,-29.14
5.250499486923218,-0.705,0.547,0.235,-137.878,-184.387,80.261,-22.42,36.69,-30.02
5.250499486923218,-0.705,0.547,0.235,-137.878,-184.387,80.261,-22.62,35.93,-31.2
5.3007285594940186,-0.65,0.553,0.305,-118.042,-171.631,78.43,-22.51,36.0,-31.1
5.3007285594940186,-0.65,0.553,0.305,-118.042,-171.631,78.43,-22.46,36.31,-32.39
5.3007285594940186,-0.552,0.542,0.382,-159.851,-175.659,72.327,-22.22,35.88,-33.16
5.3007285594940186,-0.552,0.542,0.382,-159.851,-175.659,72.327,-22.22,35.88,-33.16
5.304765939712524,-0.447,0.482,0.46,-222.473,-166.565,64.636,-22.42,35.79,-33.48
5.304765939712524,-0.585,0.388,0.531,-277.527,-171.143,64.392,-22.0,35.75,-34.36
5.304765939712524,-0.585,0.388,0.531,-277.527,-171.143,64.392,-22.27,35.49,-35.14
5.304765939712524,-0.669,0.31,0.576,-227.356,-157.532,70.557,-22.57,35.43,-35.31
5.304765939712524,-0.669,0.31,0.576,-227.356,-157.532,70.557,-22.57,35.43,-35.31
5.304765939712524,-0.583,0.296,0.651,-124.084,-149.109,102.905,-23.0,34.68,-36.03
5.354362964630127,-0.583,0.296,0.651,-124.084,-149.109,102.905,-23.06,34.45,-36.86
5.358429670333862,-0.573,0.33,0.696,-80.75,-156.677,127.502,-22.81,34.36,-37.43
5.358429670333862,-0.519,0.381,0.725,-116.516,-147.156,141.235,-22.77,34.2,-37.42
5.358429670333862,-0.519,0.381,0.725,-116.516,-147.156,141.235,-23.09,33.78,-38.38
5.358429670333862,-0.459,0.427,0.78,-156.189,-141.907,163.452,-24.0,33.02,-38.89
5.358429670333862,-0.459,0.427,0.78,-156.189,-141.907,163.452,-24.0,33.02,-38.89
5.358429670333862,-0.404,0.47,0.824,-135.071,-139.587,176.575,-24.2,32.55,-39.54
5.3624796867370605,-0.404,0.47,0.824,-69.763,-134.766,179.199,-23.97,31.94,-39.45
5.3624796867370605,-0.365,0.55,0.859,-69.763,-134.766,179.199,-24.85,31.16,-40.43
5.3624796867370605,-0.366,0.656,0.869,-33.325,-123.474,178.65,-24.63,30.68,-39.61
5.415126323699951,-0.366,0.656,0.869,-33.325,-123.474,178.65,-24.63,30.68,-39.61
5.415126323699951,-0.333,0.736,0.878,-75.806,-100.83,158.813,-24.83,30.33,-40.6
5.415126323699951,-0.333,0.736,0.878,-75.806,-100.83,158.813,-24.98,30.02,-40.87
5.415126323699951,-0.315,0.77,0.903,-109.192,-81.055,138.0,-25.3,29.66,-41.46
5.415126323699951,-0.315,0.77,0.903,-109.192,-81.055,138.0,-25.75,28.9,-41.6
5.415126323699951,-0.31,0.765,0.928,-75.195,-59.998,117.432,-25.62,28.79,-41.73
5.419628381729126,-0.284,0.754,0.942,-26.917,-42.053,99.121,-25.97,29.07,-42.05
5.419628381729126,-0.284,0.754,0.942,-26.917,-42.053,99.121,-25.97,29.07,-42.05
5.419628381729126,-0.279,0.732,0.929,-21.729,-17.151,80.688,-25.75,28.4,-42.27
5.419628381729126,-0.279,0.732,0.929,-21.729,-17.151,80.688,-25.68,28.72,-42.4
5.469472169876099,-0.294,0.678,0.916,-52.429,10.559,66.345,-26.31,28.03,-42.28
5.473559617996216,-0.294,0.678,0.916,-52.429,10.559,66.345,-26.02,27.92,-41.87
5.473559617996216,-0.318,0.581,0.898,-73.669,27.222,61.707,-25.84,28.33,-41.73
5.473559617996216,-0.258,0.497,0.878,-78.308,44.8,62.866,-25.84,28.33,-41.86
5.473559617996216,-0.258,0.497,0.878,-78.308,44.8,62.866,-26.13,27.76,-41.86
5.473559617996216,-0.206,0.462,0.847,-113.403,39.612,83.252,-26.1,27.97,-41.96
5.473559617996216,-0.206,0.462,0.847,-113.403,39.612,83.252,-26.1,27.99,-42.08
5.4776084423065186,-0.257,0.447,0.807,-144.165,35.034,96.802,-26.32,27.8,-42.37
5.4776084423065186,-0.257,0.447,0.807,-144.165,35.034,96.802,-26.32,27.8,-42.37
5.4776084423065186,-0.264,0.458,0.785,-125.061,26.733,103.76,-26.56,27.74,-42.33
5.53146767616272,-0.245,0.499,0.758,-86.365,14.587,110.657,-26.62,27.45,-42.27
5.53146767616272,-0.245,0.499,0.758,-86.365,14.587,110.657,-26.12,27.43,-42.41
5.53146767616272,-0.215,0.552,0.737,-85.022,6.287,112.427,-26.63,27.08,-42.6
5.53146767616272,-0.215,0.552,0.737,-85.022,6.287,112.427,-26.5,26.88,-42.47
5.53146767616272,-0.203,0.582,0.721,-109.009,-4.883,113.403,-26.4,26.98,-43.32
5.53146767616272,-0.203,0.582,0.721,-109.009,-4.883,113.403,-26.4,26.98,-43.32
5.5354790687561035,-0.178,0.579,0.721,-115.356,-13.611,107.178,-27.1,26.86,-43.42
5.536123275756836,-0.135,0.574,0.74,-99.731,-31.86,108.643,-27.42,26.6,-43.77
5.539592027664185,-0.135,0.574,0.74,-99.731,-31.86,108.643,-27.45,26.44,-44.02
5.539592027664185,-0.127,0.584,0.754,-98.633,-49.194,105.896,-27.92,26.25,-44.48
5.592689037322998,-0.127,0.584,0.754,-98.633,-49.194,105.896,-27.92,26.25,-44.48
5.592689037322998,-0.1,0.59,0.79,-109.253,-62.012,100.281,-28.05,25.67,-46.27
5.592689037322998,-0.1,0.59,0.79,-109.253,-62.012,100.281,-28.72,25.67,-46.27
5.592689037322998,-0.089,0.581,0.841,-97.351,-76.172,95.154,-28.78,25.55,-45.5
5.592689037322998,-0.091,0.566,0.889,-66.223,-82.092,81.909,-28.97,25.39,-46.13
5.592689037322998,-0.091,0.566,0.889,-66.223,-82.092,81.909,-29.22,25.15,-46.58
5.597148418426514,-0.069,0.547,0.937,-40.1,-82.153,66.406,-29.38,25.2,-46.55
5.597148418426514,-0.069,0.547,0.937,-40.1,-82.153,66.406,-29.38,25.2,-46.55
5.597148418426514,-0.056,0.512,0.979,-24.292,-76.965,54.626,-30.11,25.04,-46.26
5.597148418426514,-0.056,0.512,0.979,-17.151,-67.627,46.082,-29.89,24.73,-47.0
5.646723747253418,-0.051,0.46,1.015,0.0,-67.627,46.082,-30.11,24.83,-47.27
5.6507954597473145,-0.081,0.392,1.052,-10.681,-59.387,41.565,-30.37,24.7,-47.9
5.6507954597473145,-0.081,0.392,1.052,-10.681,-59.387,41.565,-30.37,24.7,-47.9
5.6507954597473145,-0.114,0.302,1.076,24.414,-53.162,35.583,-30.9,24.71,-47.91
5.6507954597473145,-0.114,0.302,1.076,24.414,-53.162,35.583,-30.94,24.17,-47.91
5.6507954597473145,-0.066,0.22,1.099,68.787,-38.757,41.626,-30.99,23.93,-47.65
5.6507954597473145,-0.066,0.22,1.099,68.787,-38.757,41.626,-31.45,23.68,-48.13
5.654806137084961,-0.018,0.169,1.114,50.049,-32.043,65.857,-31.42,23.25,-48.2
5.654806137084961,-0.02,0.134,1.109,-19.043,-18.677,94.788,-31.98,23.0,-48.0
5.654806137084961,-0.02,0.134,1.109,-19.043,-18.677,94.788,-31.98,23.0,-48.0
5.704787015914917,-0.022,0.107,1.102,-75.623,1.404,123.047,-32.46,23.37,-47.6
5.708798170089722,-0.022,0.107,1.102,-75.623,1.404,123.047,-32.15,22.86,-47.79
5.708798170089722,0.007,0.1,1.089,-106.445,23.499,151.001,-32.46,22.8,-48.73
5.708798170089722,0.007,0.1,1.089,-106.445,23.499,151.001,-32.81,22.55,-48.77
5.708798170089722,0.059,0.124,1.066,-156.555,39.673,180.359,-33.22,22.79,-49.33
5.708798170089722,0.086,0.149,1.037,-244.873,50.354,206.177,-33.16,23.08,-50.2
5.708798170089722,0.086,0.149,1.037,-244.873,50.354,206.177,-33.16,23.08,-50.2
5.712847948074341,0.087,0.154,1.023,-319.58,51.025,224.426,-33.73,23.72,-50.64
5.712847948074341,0.087,0.154,1.023,-319.58,51.025,224.426,-33.88,24.36,-50.82
5.712847948074341,0.102,0.156,1.011,-321.655,40.649,235.046,-34.05,24.13,-51.36
5.763063430786133,0.102,0.156,1.011,-321.655,40.649,235.046,-34.05,24.13,-51.36
5.763063430786133,0.137,0.192,0.995,-293.03,31.128,239.624,-34.36,24.39,-52.16
5.763063430786133,0.137,0.192,0.995,-301.819,14.771,235.718,-35.09,25.2,-53.26
5.763063430786133,0.16,0.24,0.987,-301.819,14.771,235.718,-35.52,25.11,-53.2
5.763063430786133,0.173,0.261,0.989,-298.767,0.61,221.619,-35.88,25.5,-53.52
5.7671425342559814,0.173,0.261,0.989,-298.767,0.61,221.619,-35.88,25.5,-53.52
5.7671425342559814,0.164,0.272,1.006,-250.61,-17.639,202.087,-35.79,25.53,-54.63
5.768146753311157,0.164,0.272,1.006,-250.61,-17.639,202.087,-36.51,25.83,-54.63
5.768146753311157,0.152,0.287,1.02,-189.209,-31.86,174.561,-36.85,26.31,-54.82
5.768146753311157,0.152,0.287,1.02,-189.209,-31.86,174.561,-37.34,26.56,-55.16
5.820385456085205,0.158,0.294,1.039,-144.897,-39.429,142.944,-37.47,26.5,-55.86
5.820385456085205,0.136,0.269,1.063,-111.511,-42.969,109.558,-37.81,26.78,-55.33
5.820385456085205,0.136,0.269,1.063,-111.511,-42.969,109.558,-37.81,26.78,-55.33
5.820385456085205,0.133,0.213,1.079,-66.528,-40.833,79.773,-38.35,26.98,-55.8
5.820385456085205,0.133,0.213,1.079,-66.528,-40.833,79.773,-38.42,26.95,-56.56
5.820385456085205,0.152,0.154,1.097,-37.109,-32.471,57.922,-38.31,26.97,-56.09
5.824441909790039,0.152,0.154,1.097,-37.109,-32.471,57.922,-38.66,26.89,-55.92
5.824441909790039,0.159,0.084,1.107,-40.833,-29.236,41.077,-38.83,27.36,-56.5
5.824441909790039,0.201,-0.002,1.111,-33.813,-21.24,28.992,-39.33,27.38,-56.11
5.824441909790039,0.201,-0.002,1.111,-33.813,-21.24,28.992,-39.33,27.38,-56.11
5.8741295337677,0.227,-0.087,1.119,-20.203,-16.113,25.269,-39.24,27.39,-56.65
5.87856125831604,0.227,-0.087,1.119,-20.203,-16.113,25.269,-39.35,27.32,-56.85
5.87856125831604,0.188,-0.176,1.124,-28.748,-10.62,25.818,-39.13,27.1,-56.17
5.87856125831604,0.188,-0.176,1.124,-45.898,0.916,29.785,-39.27,27.19,-55.96
5.87856125831604,0.13,-0.29,1.13,-45.898,0.916,29.785,-39.27,27.19,-55.96
5.87856125831604,0.09,-0.419,1.143,-67.444,19.104,44.739,-39.37,27.58,-56.36
5.87856125831604,0.09,-0.419,1.143,-67.444,19.104,44.739,-39.24,28.05,-56.15
5.87856125831604,0.075,-0.531,1.156,-112.366,38.757,74.585,-39.23,28.33,-56.77
5.883062839508057,0.075,-0.531,1.156,-112.366,38.757,74.585,-38.83,28.37,-56.85
5.883062839508057,0.064,-0.604,1.153,-169.678,56.641,115.845,-39.01,29.35,-56.8
5.9325621128082275,0.064,-0.604,1.153,-169.678,56.641,115.845,-39.01,29.35,-56.8
5.936595678329468,0.059,-0.627,1.126,-216.187,71.106,160.034,-39.01,29.79,-56.66
5.936595678329468,0.082,-0.589,1.08,-254.456,79.285,198.547,-38.56,30.14,-56.64
5.936595678329468,0.082,-0.589,1.08,-254.456,79.285,198.547,-39.16,30.99,-56.61
5.936595678329468,0.109,-0.505,1.027,-294.189,79.712,228.21,-39.18,31.22,-56.9
5.936595678329468,2.867,1.616,2.871,1.605,0.0,0.0,-39.18,32.02,-57.19
5.936595678329468,0.161,-0.401,0.991,-322.327,65.125,243.958,-39.16,32.7,-56.68
5.940605640411377,0.161,-0.401,0.991,-322.327,65.125,243.958,-39.16,32.7,-56.68
5.940605640411377,0.197,-0.296,0.964,-299.988,39.001,247.864,-39.27,33.15,-57.18
5.940605640411377,0.126,-0.2,0.94,-246.033,20.325,229.248,-39.49,33.51,-56.97
5.990154266357422,0.126,-0.2,0.94,-246.033,20.325,229.248,-39.32,34.11,-56.9
5.990154266357422,0.026,-0.135,0.936,-200.562,15.808,198.181,-39.42,34.38,-57.34
5.990154266357422,0.026,-0.135,0.936,-200.562,15.808,198.181,-39.42,34.38,-57.34
5.990154266357422,-0.033,-0.119,0.944,-170.044,19.043,162.659,-39.61,35.0,-57.53
5.994197130203247,-0.033,-0.119,0.944,-170.044,19.043,162.659,-39.74,34.8,-57.32
5.994197130203247,-0.066,-0.141,0.953,-155.212,28.564,129.639,-39.49,35.25,-57.29
5.994197130203247,-0.096,-0.19,0.952,-149.597,41.809,100.098,-39.37,35.56,-57.59
5.994197130203247,-0.096,-0.19,0.952,-149.597,41.809,100.098,-39.32,36.23,-57.03
5.994197130203247,-0.134,-0.248,0.937,-142.09,58.228,78.125,-39.46,36.77,-57.07
5.994197130203247,-0.134,-0.248,0.937,-142.09,58.228,78.125,-39.46,36.77,-57.07
6.047359466552734,-0.137,-0.306,0.913,-138.855,68.237,57.19,-38.88,37.07,-56.99
6.047359466552734,-0.137,-0.306,0.913,-138.855,68.237,57.19,-38.79,36.88,-56.85
6.047359466552734,-0.13,-0.373,0.881,-121.399,68.298,35.522,-38.57,37.37,-56.64
6.047359466552734,-0.184,-0.433,0.841,-81.848,68.237,17.273,-38.35,37.61,-57.34
6.047359466552734,-0.184,-0.433,0.841,-81.848,68.237,17.273,-38.35,37.61,-57.34
6.051393508911133,-0.254,-0.487,0.797,-64.331,68.542,4.883,-38.23,37.72,-56.27
6.051393508911133,-0.254,-0.487,0.797,-64.331,68.542,4.883,-37.69,38.0,-55.92
6.051393508911133,-0.306,-0.554,0.755,-83.74,75.867,-2.258,-37.17,38.28,-55.98
6.051393508911133,-0.306,-0.554,0.755,-113.831,83.496,-5.249,-36.89,38.37,-55.92
6.051393508911133,-0.327,-0.639,0.726,-113.831,83.496,-5.249,-36.95,38.82,-55.28
6.1022374629974365,-0.286,-0.733,0.706,-123.23,84.29,-4.761,-36.36,39.59,-55.47
6.1022374629974365,-0.286,-0.733,0.706,-123.23,84.29,-4.761,-36.36,39.59,-55.47
6.105146169662476,-0.25,-0.831,0.69,-114.685,78.369,1.892,-36.64,40.0,-55.5
6.105146169662476,-0.25,-0.831,0.69,-114.685,78.369,1.892,-36.06,39.86,-56.09
6.105146169662476,-0.24,-0.925,0.674,-119.446,72.998,10.681,-35.98,40.28,-55.0
6.105146169662476,-0.24,-0.925,0.674,-119.446,72.998,10.681,-35.98,40.28,-55.0
6.105146169662476,-0.21,-1.008,0.675,-135.254,67.322,22.461,-35.75,40.79,-54.98
6.105146169662476,-0.2,-1.088,0.682,-130.31,56.946,41.504,-35.3,41.1,-55.12
6.109179258346558,-0.2,-1.088,0.682,-130.31,56.946,41.504,-35.28,41.13,-54.78
6.109179258346558,-0.223,-1.143,0.686,-107.422,50.781,64.331,-35.09,41.23,-54.03
6.159847021102905,-0.223,-1.143,0.686,-107.422,50.781,64.331,-35.02,41.57,-54.15
6.159847021102905,-0.263,-1.155,0.684,-95.276,42.603,92.834,-34.61,41.33,-54.69
6.159847021102905,-0.263,-1.155,0.684,-95.276,42.603,92.834,-34.61,41.33,-54.69
6.159847021102905,-0.308,-1.129,0.662,-84.839,34.729,122.009,-34.38,41.2,-54.36
6.1638524532318115,-0.308,-1.129,0.662,-61.401,29.541,148.437,-34.57,41.27,-53.51
6.1638524532318115,-0.345,-1.058,0.622,0.0,29.541,148.437,-34.36,40.68,-53.98
6.1638524532318115,-0.351,-0.95,0.576,-53.223,26.794,168.335,-34.33,40.73,-54.25
6.1638524532318115,-0.351,-0.95,0.576,-53.223,26.794,168.335,-34.33,40.73,-54.25
6.1638524532318115,-0.354,-0.844,0.544,-68.054,19.531,178.772,-34.08,40.22,-53.93
6.1638524532318115,-0.354,-0.844,0.544,-68.054,19.531,178.772,-34.52,40.35,-53.68
6.21867299079895,-0.307,-0.771,0.523,-59.57,4.944,183.472,-33.95,40.05,-53.35
6.21968150138855,-0.307,-0.771,0.523,-59.57,4.944,183.472,-34.35,39.24,-53.89
6.220393419265747,-0.245,-0.73,0.531,7.751,-6.592,190.308,-33.73,38.64,-53.19
6.220393419265747,-0.264,-0.704,0.564,90.576,-19.47,202.026,-33.89,37.68,-53.42
6.221458196640015,-0.264,-0.704,0.564,90.576,-19.47,202.026,-33.89,37.68,-53.42
6.221458196640015,-0.297,-0.662,0.588,165.894,-28.076,214.233,-33.97,36.76,-54.34
6.222501277923584,-0.297,-0.662,0.588,165.894,-28.076,214.233,-34.17,36.14,-53.35
6.223509311676025,-0.344,-0.597,0.615,151.855,-27.71,209.595,-34.42,35.25,-53.73
6.224428415298462,-0.344,-0.597,0.615,151.855,-27.71,209.595,-34.62,34.92,-54.21
6.224428415298462,-0.402,-0.578,0.672,72.205,-23.865,192.2,-34.57,34.39,-53.57
6.276977777481079,-0.414,-0.629,0.76,55.298,-18.433,175.72,-34.57,34.39,-53.71
6.276977777481079,-0.414,-0.629,0.76,55.298,-18.433,175.72,-34.8,33.72,-53.71
6.2779765129089355,-0.383,-0.692,0.856,119.934,-11.353,164.795,-35.14,32.94,-53.92
6.278976917266846,-0.383,-0.692,0.856,119.934,-11.353,164.795,-35.44,32.48,-53.65
6.278976917266846,-0.369,-0.728,0.93,174.072,1.221,158.264,-35.53,31.15,-53.6
6.27997612953186,-0.369,-0.728,0.93,172.485,25.146,157.837,-35.41,30.49,-53.22
6.27997612953186,-0.426,-0.727,0.976,1.605,0.0,0.0,-35.41,30.49,-53.22
6.27997612953186,-0.489,-0.684,0.989,132.751,57.983,162.903,-35.36,29.87,-52.54
6.27997612953186,-0.489,-0.684,0.989,132.751,57.983,162.903,-35.47,29.8,-52.21
6.27997612953186,-0.506,-0.584,0.959,61.707,97.351,174.438,-35.55,29.22,-51.89
6.333567142486572,-0.506,-0.584,0.959,61.707,97.351,174.438,-35.55,29.22,-51.21
6.333567142486572,-0.504,-0.437,0.887,-20.752,130.554,186.401,-34.87,28.88,-51.58
6.333567142486572,-0.504,-0.437,0.887,-20.752,130.554,186.401,-34.87,28.88,-51.58
6.333567142486572,-0.493,-0.27,0.785,-67.139,149.719,189.026,-34.84,28.72,-51.13
6.337573528289795,-0.496,-0.111,0.679,-46.57,152.466,177.124,-34.49,27.77,-50.83
6.337573528289795,-0.496,-0.111,0.679,-46.57,152.466,177.124,-34.43,27.78,-49.97
6.337573528289795,-0.545,0.021,0.583,23.865,142.151,143.982,-33.89,27.33,-49.74
6.337573528289795,-0.545,0.021,0.583,23.865,142.151,143.982,-33.89,27.33,-49.74
6.337573528289795,-0.606,0.117,0.502,93.872,125.854,96.985,-33.51,26.97,-49.11
6.337573528289795,-0.606,0.117,0.502,93.872,125.854,96.985,-33.92,26.37,-48.74
6.390339136123657,-0.71,0.174,0.454,118.225,110.596,46.387,-33.34,26.1,-48.7
6.391396999359131,-0.75,0.125,0.452,121.46,88.074,-3.601,-33.21,25.94,-47.82
6.391396999359131,-0.75,0.125,0.452,121.46,88.074,-3.601,-33.21,25.94,-47.53
6.391396999359131,-0.82,-0.052,0.49,189.819,76.782,-40.894,-32.52,25.14,-47.12
6.391396999359131,-0.82,-0.052,0.49,189.819,76.782,-40.894,-32.58,25.14,-47.12
6.391396999359131,-0.914,-0.243,0.558,259.827,81.299,-67.078,-32.04,24.74,-45.73
6.391396999359131,-0.914,-0.243,0.558,259.827,81.299,-67.078,-31.99,24.13,-45.89
6.3956756591796875,-0.888,-0.423,0.623,214.6,100.952,-65.002,-31.51,24.29,-44.72
6.3956756591796875,-0.888,-0.423,0.623,91.553,138.123,-36.926,-30.96,23.97,-43.89
6.3956756591796875,-0.896,-0.603,0.676,91.553,138.123,-36.926,-30.96,23.97,-43.89
6.445109844207764,-0.903,-0.714,0.682,-1.77,176.575,9.46,-30.65,24.38,-43.5
6.445109844207764,-0.903,-0.714,0.682,-1.77,176.575,9.46,-30.3,24.14,-43.09
6.449450731277466,-0.87,-0.686,0.596,-54.993,205.688,63.11,-29.66,24.09,-42.4
6.449450731277466,-0.87,-0.686,0.596,-54.993,205.688,63.11,-29.36,23.91,-42.2
6.449450731277466,-0.83,-0.525,0.434,-102.905,219.849,108.826,-29.44,23.59,-41.64
6.449450731277466,-0.83,-0.525,0.434,-102.905,219.849,108.826,-29.44,23.59,-41.64
6.449450731277466,-0.806,-0.292,0.245,-127.014,211.06,139.099,-29.13,23.66,-41.32
6.449450731277466,-0.808,-0.052,0.076,-83.679,183.472,150.146,-28.92,23.52,-40.98
6.453586101531982,-0.808,-0.052,0.076,-83.679,183.472,150.146,-29.57,23.22,-40.68
6.453586101531982,-0.827,0.161,-0.051,-3.296,143.86,141.235,-29.14,22.73,-40.28
6.502151966094971,-0.827,0.161,-0.051,-3.296,143.86,141.235,-29.14,22.73,-40.28
6.506159067153931,-0.845,0.308,-0.119,47.302,98.633,113.159,-29.36,22.05,-39.62
6.506159067153931,-0.845,0.308,-0.119,49.683,50.232,74.89,-29.35,22.07,-39.62
6.506159067153931,-0.851,0.361,-0.121,49.683,50.232,74.89,-29.66,21.66,-39.24
6.506159067153931,-0.881,0.324,-0.065,52.612,16.968,41.321,-29.52,21.66,-39.24
6.506159067153931,-0.881,0.324,-0.065,52.612,16.968,41.321,-29.52,21.66,-38.98
6.506159067153931,-0.929,0.235,0.037,77.271,0.671,20.325,-29.61,21.31,-38.79
6.510213613510132,-0.929,0.235,0.037,77.271,0.671,20.325,-29.35,21.31,-38.79
6.510213613510132,-0.962,0.144,0.144,85.754,-4.639,7.507,-29.73,21.4,-38.91
6.510213613510132,-0.962,0.144,0.144,85.754,-4.639,7.507,-29.93,21.46,-38.82
6.559783220291138,-0.986,0.066,0.234,63.11,-1.404,-0.488,-29.64,21.46,-38.56
6.559783220291138,-1.012,0.002,0.302,44.983,5.371,-6.348,-29.67,21.21,-38.38
6.564074993133545,-1.012,0.002,0.302,44.983,5.371,-6.348,-29.67,21.21,-38.38
6.564074993133545,-1.027,-0.047,0.345,54.81,14.465,-11.658,-29.63,21.18,-38.41
6.564074993133545,-1.027,-0.047,0.345,54.81,14.465,-11.658,-30.02,20.7,-37.91
6.564074993133545,-1.018,-0.082,0.371,73.73,23.865,-15.747,-29.74,21.18,-37.5
6.564074993133545,-1.018,-0.082,0.371,73.73,23.865,-15.747,-29.83,20.87,-36.52
6.564074993133545,-0.995,-0.109,0.386,84.229,30.09,-17.456,-29.25,20.72,-36.57
6.5680859088897705,-0.963,-0.132,0.38,113.77,32.532,-16.296,-29.45,20.97,-36.44
6.5680859088897705,-0.963,-0.132,0.38,113.77,32.532,-16.296,-29.45,20.97,-36.44
6.617293119430542,-0.93,-0.137,0.358,178.406,34.729,-17.334,-29.17,20.89,-36.06
6.621345281600952,-0.93,-0.137,0.358,178.406,34.729,-17.334,-29.04,20.61,-35.14
6.622554302215576,-0.918,-0.145,0.345,165.955,39.001,-18.25,-29.35,20.67,-34.89
6.622554302215576,-0.918,-0.145,0.345,165.955,39.001,-18.25,-29.35,20.49,-34.29
6.622554302215576,-0.938,-0.193,0.359,36.194,58.472,-14.404,-28.79,21.02,-34.65
6.622554302215576,-0.971,-0.269,0.388,-82.458,83.496,0.427,-28.79,21.02,-34.81
6.622554302215576,-0.971,-0.269,0.388,-82.458,83.496,0.427,-28.72,20.7,-34.81
6.625702619552612,-0.993,-0.303,0.38,-92.529,104.797,24.109,-28.78,20.78,-34.46
6.625702619552612,-0.993,-0.303,0.38,-92.529,104.797,24.109,-28.71,20.74,-33.98
6.625702619552612,-1.0,-0.25,0.319,-74.89,118.347,46.692,-28.87,20.72,-33.98
6.678786754608154,-1.0,-0.25,0.319,-74.89,118.347,46.692,-28.87,20.72,-33.98
6.678786754608154,-1.0,-0.146,0.221,-96.313,124.573,57.373,-28.95,20.36,-34.27
6.678786754608154,-0.995,-0.042,0.121,-108.948,122.986,57.434,-29.44,20.4,-34.29
6.678786754608154,-0.995,-0.042,0.121,-108.948,122.986,57.434,-29.07,20.27,-33.29
6.678786754608154,-0.985,0.047,0.035,-68.665,112.61,51.514,-29.55,19.89,-33.34
6.682833671569824,-0.985,0.047,0.035,-68.665,112.61,51.514,-29.32,19.63,-34.04
6.682833671569824,-0.974,0.122,-0.041,-4.639,96.375,39.49,-29.57,19.92,-32.93
6.682833671569824,-0.974,0.122,-0.041,-4.639,96.375,39.49,-29.57,19.92,-32.93
6.682833671569824,-0.962,0.172,-0.1,34.973,76.843,20.935,-29.13,19.61,-33.02
6.682833671569824,-0.971,0.186,-0.134,40.466,55.908,1.831,-29.04,19.29,-32.43
6.737088203430176,-0.971,0.186,-0.134,40.466,55.908,1.831,-29.32,19.63,-32.07
6.737088203430176,-0.99,0.163,-0.14,42.114,37.415,-14.771,-29.03,19.61,-31.91
6.737088203430176,-0.99,0.163,-0.14,42.114,37.415,-14.771,-29.03,19.61,-31.91
6.737088203430176,-1.004,0.109,-0.126,64.026,21.423,-22.583,-29.19,19.69,-31.86
6.741528749465942,-1.004,0.109,-0.126,64.026,21.423,-22.583,-29.04,19.85,-32.13
6.741528749465942,-1.026,0.057,-0.109,89.417,11.719,-23.254,-29.23,19.82,-31.69
6.741528749465942,-1.059,0.029,-0.105,88.867,6.226,-20.447,-29.0,19.72,-31.42
6.741528749465942,-1.059,0.029,-0.105,88.867,6.226,-20.447,-28.91,19.94,-31.13
6.741528749465942,-1.086,0.019,-0.114,90.637,0.916,-17.944,-29.17,19.8,-31.18
6.741528749465942,-1.086,0.019,-0.114,90.637,0.916,-17.944,-29.17,19.8,-31.18
6.795077800750732,-1.08,0.018,-0.125,127.747,-7.385,-17.456,-28.68,19.89,-30.8
6.795077800750732,-1.08,0.018,-0.125,127.747,-7.385,-17.456,-28.9,20.21,-30.77
6.795077800750732,-1.05,0.019,-0.131,154.907,-20.264,-17.944,-29.25,20.39,-30.46
6.795077800750732,-1.016,0.013,-0.125,145.569,-34.485,-18.921,-28.71,20.2,-30.05
6.795077800750732,-1.016,0.013,-0.125,145.569,-34.485,-18.921,-28.71,20.45,-30.17
6.795077800750732,-0.999,-0.001,-0.108,124.023,-46.753,-17.395,-28.49,20.56,-30.61
6.7990882396698,-0.999,-0.001,-0.108,124.023,-46.753,-17.395,-28.49,20.56,-30.61
6.7990882396698,-0.99,-0.012,-0.082,112.488,-56.763,-15.442,-28.85,20.45,-29.87
6.7990882396698,-0.99,-0.012,-0.082,117.31,-67.871,-12.573,-28.46,20.53,-29.49
6.7990882396698,-0.982,-0.009,-0.055,117.31,-67.871,-12.573,-28.87,20.42,-29.38
6.8522045612335205,-0.99,0.018,-0.041,128.601,-77.637,-9.033,-28.88,20.02,-29.7
6.8522045612335205,-0.99,0.018,-0.041,128.601,-77.637,-9.033,-28.88,20.02,-29.7
6.8522045612335205,-1.007,0.065,-0.036,127.747,-85.876,-9.094,-28.63,20.24,-29.49
6.8522045612335205,-1.007,0.065,-0.036,127.747,-85.876,-9.094,-28.62,20.58,-30.04
6.8522045612335205,-1.015,0.115,-0.029,120.605,-94.666,-14.465,-28.66,20.45,-29.42
6.8522045612335205,-1.015,0.115,-0.029,120.605,-94.666,-14.465,-28.87,20.51,-29.87
6.8522045612335205,-1.01,0.156,-0.02,125.916,-101.929,-21.179,-28.41,20.37,-29.33
6.856594085693359,-1.0,0.204,-0.017,141.113,-109.07,-33.691,-28.66,20.4,-29.66
6.856594085693359,-1.0,0.204,-0.017,141.113,-109.07,-33.691,-28.66,20.4,-29.66
6.856594085693359,-0.969,0.258,-0.018,163.269,-118.408,-48.279,-28.02,20.43,-29.83
6.910003900527954,-0.969,0.258,-0.018,163.269,-118.408,-48.279,-27.84,20.86,-30.36
6.910003900527954,-0.928,0.298,-0.012,197.571,-135.742,-67.322,-27.62,20.67,-30.18
6.910003900527954,-0.928,0.298,-0.012,237.305,-161.56,-91.492,-27.49,21.12,-30.21
6.910003900527954,-0.884,0.31,0.011,237.305,-161.56,-91.492,-27.49,21.12,-30.21
6.910003900527954,-0.845,0.273,0.071,291.382,-192.993,-112.183,-27.67,21.63,-30.01
6.910003900527954,-0.845,0.273,0.071,291.382,-192.993,-112.183,-27.27,21.51,-30.49
6.914031744003296,-0.804,0.213,0.144,402.405,-224.548,-120.789,-27.2,21.95,-29.93
6.914031744003296,-0.804,0.213,0.144,402.405,-224.548,-120.789,-26.72,22.2,-30.31
6.914031744003296,-0.741,0.172,0.228,446.167,-257.812,-124.146,-26.22,22.36,-29.74
6.914031744003296,-0.741,0.172,0.228,446.167,-257.812,-124.146,-26.22,22.36,-29.74
6.967280149459839,-0.691,0.129,0.334,428.772,-285.889,-118.652,-26.13,22.77,-29.8
6.967280149459839,-0.647,0.085,0.44,445.251,-306.824,-108.521,-26.09,23.09,-29.92
6.967280149459839,-0.647,0.085,0.44,445.251,-306.824,-108.521,-25.8,23.12,-30.02
6.969852447509766,-0.625,0.082,0.542,461.792,-318.359,-93.384,-25.69,23.4,-29.87
6.969852447509766,-0.625,0.082,0.542,461.792,-318.359,-93.384,-25.69,23.4,-29.87
6.969852447509766,-0.606,0.118,0.621,410.217,-319.824,-76.05,-25.75,24.16,-30.82
6.971596002578735,-0.606,0.118,0.621,410.217,-319.824,-76.05,-25.71,24.16,-30.82
6.971596002578735,-0.566,0.178,0.684,351.624,-312.622,-64.514,-25.61,23.72,-30.91
6.971596002578735,-0.491,0.257,0.732,345.703,-317.566,-56.274,-25.53,23.98,-31.99
6.971596002578735,-0.491,0.257,0.732,345.703,-317.566,-56.274,-25.69,23.85,-32.4
7.0250914096832275,-0.4,0.354,0.763,380.554,-330.75,-53.04,-25.77,23.68,-33.31
7.0250914096832275,-0.4,0.354,0.763,380.554,-330.75,-53.04,-25.77,23.68,-33.31
7.0250914096832275,-0.369,0.464,0.784,402.588,-348.389,-52.673,-26.28,23.87,-33.27
7.02936863899231,-0.369,0.464,0.784,402.588,-348.389,-52.673,-26.05,23.9,-33.65
7.02936863899231,-0.334,0.546,0.817,382.202,-359.985,-56.885,-26.0,23.98,-34.13
7.02936863899231,-0.252,0.588,0.887,339.661,-369.446,-70.19,-26.07,23.95,-34.79
7.02936863899231,-0.252,0.588,0.887,339.661,-369.446,-70.19,-26.13,23.72,-35.84
7.02936863899231,-0.187,0.599,0.969,306.946,-370.483,-73.12,-26.59,23.36,-36.73
7.02936863899231,-0.187,0.599,0.969,306.946,-370.483,-73.12,-26.59,23.36,-36.73
7.033382415771484,-0.156,0.609,1.021,295.898,-355.591,-78.247,-26.73,23.9,-37.18
7.0833799839019775,-0.156,0.609,1.021,287.231,-329.224,-91.919,-26.41,24.01,-38.12
7.0833799839019775,-0.112,0.658,1.045,287.231,-329.224,-91.919,-26.45,24.2,-38.21
7.0833799839019775,-0.083,0.726,1.043,253.113,-300.598,-105.225,-26.38,23.88,-38.06
7.0833799839019775,-0.083,0.726,1.043,253.113,-300.598,-105.225,-26.38,23.88,-38.06
7.087702989578247,-0.072,0.789,1.02,220.703,-269.47,-126.282,-26.66,24.36,-38.76
7.087702989578247,-0.072,0.789,1.02,220.703,-269.47,-126.282,-26.7,24.16,-38.97
7.087702989578247,-0.035,0.866,0.986,221.741,-248.108,-149.902,-26.38,24.26,-39.49
7.087702989578247,-0.035,0.866,0.986,221.741,-248.108,-149.902,-27.07,24.51,-39.83
7.087702989578247,0.019,0.964,0.928,243.408,-243.53,-175.171,-26.78,25.18,-39.9
7.087702989578247,0.104,1.056,0.87,255.859,-249.878,-207.703,-26.63,25.62,-40.51
7.141136884689331,0.104,1.056,0.87,255.859,-249.878,-207.703,-26.63,25.62,-40.51
7.141136884689331,0.168,1.111,0.839,253.784,-263.428,-237.671,-26.82,25.83,-41.19
7.141136884689331,0.168,1.111,0.839,253.784,-263.428,-237.671,-26.64,26.45,-41.99
7.141136884689331,0.208,1.133,0.835,250.793,-276.733,-270.081,-26.62,27.14,-42.11
7.141136884689331,0.208,1.133,0.835,250.793,-276.733,-270.081,-26.62,27.14,-42.11
7.141136884689331,0.28,1.135,0.861,254.395,-294.25,-295.227,-26.63,28.38,-43.74
7.145176649093628,0.299,1.113,0.899,259.399,-308.228,-310.547,-27.3,28.38,-43.74
7.145176649093628,0.299,1.113,0.899,259.399,-308.228,-310.547,-27.05,29.28,-44.72
7.145176649093628,0.284,1.075,0.946,245.422,-311.768,-334.656,-27.57,29.74,-44.93
7.145176649093628,0.284,1.075,0.946,245.422,-311.768,-334.656,-28.12,30.5,-45.6
7.194467306137085,0.272,1.005,1.015,223.572,-303.04,-352.539,-28.22,31.06,-46.35
7.198841571807861,0.272,1.005,1.015,223.572,-303.04,-352.539,-28.22,31.06,-46.35
7.198841571807861,0.182,0.889,1.081,222.839,-281.616,-365.234,-29.06,31.57,-46.73
7.198841571807861,0.104,0.755,1.141,228.882,-244.263,-378.418,-29.17,32.23,-47.19
7.198841571807861,0.104,0.755,1.141,228.882,-244.263,-378.418,-29.61,32.48,-47.72
7.198841571807861,0.074,0.62,1.208,224.487,-206.543,-375.244,-30.04,33.09,-47.98
7.198841571807861,0.074,0.62,1.208,224.487,-206.543,-375.244,-30.04,33.09,-48.35
7.202852725982666,-0.011,0.487,1.245,200.195,-165.71,-355.164,-30.36,34.11,-49.24
7.202852725982666,-0.011,0.487,1.245,200.195,-165.71,-355.164,-30.36,34.11,-49.24
7.202852725982666,-0.117,0.368,1.257,161.255,-110.901,-321.472,-30.43,34.84,-48.9
7.252096891403198,-0.221,0.283,1.248,108.643,-49.5,-274.109,-30.97,34.99,-48.76
7.252096891403198,-0.221,0.283,1.248,108.643,-49.5,-274.109,-30.96,35.53,-48.96
7.252096891403198,-0.333,0.238,1.206,39.185,10.681,-221.252,-31.01,35.66,-49.3
7.256166934967041,-0.333,0.238,1.206,39.185,10.681,-221.252,-31.01,35.66,-49.3
7.256166934967041,-0.415,0.239,1.125,-25.269,63.843,-168.884,-30.75,36.55,-48.58
7.256166934967041,-0.415,0.239,1.125,-25.269,63.843,-168.884,-30.81,36.98,-48.3
7.256166934967041,-0.453,0.302,1.001,-74.219,114.075,-116.272,-30.52,36.98,-48.25
7.256166934967041,-0.455,0.409,0.857,-146.851,152.649,-71.167,-29.83,37.81,-47.62
7.256166934967041,-0.455,0.409,0.857,-146.851,152.649,-71.167,-29.38,38.19,-47.14
7.260210037231445,-0.459,0.509,0.716,-195.19,171.204,-44.8,-29.01,38.83,-46.71
7.310718059539795,-0.459,0.509,0.716,-195.19,171.204,-44.8,-29.01,38.83,-46.71
7.310718059539795,-0.463,0.603,0.586,-159.058,172.119,-38.147,-28.9,38.92,-46.24
7.310718059539795,-0.463,0.603,0.586,-159.058,172.119,-38.147,-28.31,39.16,-45.85
7.310718059539795,-0.471,0.693,0.471,-91.064,157.593,-49.561,-27.89,39.64,-45.59
7.310718059539795,-0.499,0.755,0.383,-65.125,132.812,-77.515,-27.73,39.99,-45.35
7.310718059539795,-0.499,0.755,0.383,-65.125,132.812,-77.515,-27.73,39.99,-45.35
7.314728021621704,-0.516,0.769,0.337,-71.472,107.483,-107.849,-27.58,40.68,-44.99
7.314728021621704,-0.516,0.769,0.337,-71.472,107.483,-107.849,-27.27,41.04,-44.74
7.314728021621704,-0.532,0.738,0.321,-26.733,79.468,-128.479,-27.23,41.55,-44.62
7.314728021621704,-0.532,0.738,0.321,-26.733,79.468,-128.479,-27.16,41.38,-44.42
7.365026235580444,-0.567,0.711,0.312,59.875,47.913,-140.32,-27.24,41.98,-44.42
7.369035243988037,-0.602,0.696,0.301,102.539,12.39,-145.691,-27.73,42.08,-44.21
7.369035243988037,-0.602,0.696,0.301,102.539,12.39,-145.691,-27.73,42.08,-44.21
7.370041608810425,-0.62,0.655,0.308,79.346,-19.409,-151.245,-27.42,42.77,-44.77
7.370041608810425,-0.62,0.655,0.308,79.346,-19.409,-151.245,-27.74,43.15,-45.57
7.370041608810425,-0.631,0.572,0.348,59.814,-50.476,-156.128,-27.74,43.17,-45.72
7.370041608810425,-0.631,0.572,0.348,59.814,-50.476,-156.128,-28.06,43.42,-46.01
7.370041608810425,-0.63,0.473,0.416,88.562,-78.674,-158.813,-28.34,43.6,-45.92
7.373085021972656,-0.624,0.384,0.498,131.348,-102.844,-149.231,-28.34,42.91,-46.4
7.373085021972656,-0.624,0.384,0.498,131.348,-102.844,-149.231,-29.03,42.91,-46.4
7.424680471420288,-0.626,0.313,0.582,142.761,-113.403,-135.62,-29.2,43.67,-46.9
7.425732851028442,-0.626,0.313,0.582,142.761,-113.403,-135.62,-29.6,43.86,-47.0
7.4267332553863525,-0.638,0.273,0.668,114.99,-111.877,-115.784,-30.11,43.98,-48.61
7.4271626472473145,-0.638,0.273,0.668,114.99,-111.877,-115.784,-30.11,43.98,-48.61
7.427864074707031,-0.657,0.248,0.738,65.369,-96.313,-93.506,-30.8,44.15,-48.73
7.427864074707031,-0.66,0.236,0.787,19.348,-68.054,-76.599,-30.77,44.29,-48.93
7.428976774215698,-0.66,0.236,0.787,19.348,-68.054,-76.599,-30.93,44.68,-49.02
7.429985284805298,-0.664,0.245,0.812,-8.789,-31.555,-66.284,-30.88,44.71,-49.53
7.430483341217041,-0.664,0.245,0.812,-8.789,-31.555,-66.284,-30.81,44.74,-49.02
7.430483341217041,-0.675,0.281,0.804,-32.898,6.775,-60.974,-31.06,44.75,-48.0
7.480501651763916,-0.675,0.281,0.804,-68.237,38.879,-56.702,-31.06,44.75,-48.0
7.480501651763916,-0.69,0.341,0.764,-68.237,38.879,-56.702,-31.01,45.35,-47.84
7.480501651763916,-0.726,0.409,0.712,-95.337,56.58,-51.453,-30.97,45.45,-48.01
7.484659910202026,-0.726,0.409,0.712,-95.337,56.58,-51.453,-30.68,45.89,-47.49
7.484659910202026,-0.74,0.475,0.658,-90.576,57.007,-47.607,-30.63,46.24,-47.88
7.484659910202026,-0.74,0.475,0.658,-90.576,57.007,-47.607,-30.63,46.24,-47.88
7.484659910202026,-0.738,0.536,0.614,-59.875,44.983,-49.316,-30.63,46.61,-47.33
7.484659910202026,-0.738,0.536,0.614,-59.875,44.983,-49.316,-30.39,46.76,-47.65
7.484659910202026,-0.673,0.445,0.649,-5.493,19.592,-73.425,-30.74,47.15,-48.0
7.4886932373046875,-0.632,0.301,0.73,137.146,-8.911,-105.347,-30.81,46.74,-47.91
7.542279481887817,-0.632,0.301,0.73,137.146,-8.911,-105.347,-30.74,46.48,-48.04
7.542279481887817,-0.719,0.302,0.748,223.633,6.042,-93.567,-31.13,46.61,-47.75
7.542279481887817,-0.719,0.302,0.748,223.633,6.042,-93.567,-31.13,46.61,-47.75
7.542279481887817,-0.752,0.305,0.742,70.679,43.762,-92.712,-31.16,46.7,-47.57
7.542279481887817,-0.752,0.305,0.742,70.679,43.762,-92.712,-30.9,47.06,-47.27
7.542279481887817,-0.715,0.234,0.738,-68.359,81.665,-91.98,-30.53,47.53,-46.83
7.546402454376221,-0.699,0.165,0.71,-38.086,116.455,-88.135,-30.33,47.49,-46.64
7.546402454376221,-0.699,0.165,0.71,-38.086,116.455,-88.135,-30.33,47.49,-46.64
7.546402454376221,-0.726,0.171,0.631,-11.963,142.944,-81.238,-30.36,48.07,-45.79
7.546402454376221,-0.726,0.171,0.631,-11.963,142.944,-81.238,-30.28,48.22,-45.91
7.598996639251709,-0.684,0.193,0.522,-103.21,172.607,-79.346,-29.76,48.57,-44.62
7.598996639251709,-0.684,0.193,0.522,-103.21,172.607,-79.346,-29.66,49.06,-44.18
7.598996639251709,-0.779,0.194,0.46,-201.904,195.679,-79.224,-29.86,49.56,-42.85
7.6030354499816895,-0.959,0.208,0.38,-219.788,188.232,-55.603,-29.61,50.04,-41.46
7.6030354499816895,-0.959,0.208,0.38,-219.788,188.232,-55.603,-29.61,50.04,-41.46
7.604196071624756,-0.934,0.258,0.282,-195.19,181.763,-29.358,-29.54,50.34,-40.75
7.604196071624756,-0.934,0.258,0.282,-195.19,181.763,-29.358,-28.87,50.76,-40.49
7.605266094207764,-0.843,0.318,0.197,-219.055,148.621,-34.79,-28.62,51.52,-39.7
7.6063501834869385,-0.843,0.318,0.197,-219.055,148.621,-34.79,-28.57,51.53,-38.86
7.6063501834869385,-0.817,0.32,0.123,-204.224,124.207,-53.04,-28.52,51.56,-38.59
7.657104730606079,-0.85,0.287,0.08,-111.267,102.539,-71.655,-28.46,52.25,-38.16
7.657104730606079,-0.85,0.287,0.08,-111.267,102.539,-71.655,-28.46,52.25,-38.16
7.657104730606079,-0.792,0.25,0.048,-63.293,84.595,-92.834,-28.43,52.31,-37.43
7.657104730606079,-0.792,0.25,0.048,-63.293,84.595,-92.834,-28.95,53.19,-37.83
7.657104730606079,-0.786,0.197,0.042,-107.117,60.364,-118.591,-29.11,53.61,-36.69
7.661144971847534,-0.786,0.197,0.042,-107.117,60.364,-118.591,-29.11,53.61,-36.23
7.661144971847534,-0.87,0.075,0.053,-128.601,39.795,-130.371,-29.48,54.44,-36.44
7.661144971847534,-0.929,-0.059,0.071,-55.603,16.174,-128.113,-29.48,54.44,-36.44
7.661144971847534,-0.929,-0.059,0.071,-55.603,16.174,-128.113,-29.86,54.52,-36.85
7.661144971847534,-0.922,-0.116,0.063,5.859,-8.362,-108.215,-29.85,54.85,-37.27
7.714115381240845,-0.922,-0.116,0.063,5.859,-8.362,-108.215,-30.33,54.91,-37.01
7.714115381240845,-0.866,-0.152,0.053,-21.729,-31.555,-88.989,-30.66,55.29,-37.05
7.714115381240845,-0.866,-0.152,0.053,-35.828,-57.434,-76.233,-30.66,55.29,-36.79
7.714115381240845,-0.808,-0.235,0.086,1.605,0.0,0.0,-30.61,55.8,-36.79
7.718286514282227,-0.861,-0.305,0.14,28.137,-83.374,-51.086,-31.26,55.83,-37.36
7.718286514282227,-0.861,-0.305,0.14,28.137,-83.374,-51.086,-31.35,55.61,-38.53
7.718286514282227,-0.958,-0.269,0.199,78.735,-109.863,-26.001,-31.53,55.86,-39.29
7.718286514282227,-0.958,-0.269,0.199,78.735,-109.863,-26.001,-31.53,55.86,-39.29
7.718286514282227,-0.936,-0.175,0.261,44.739,-133.789,-12.695,-31.76,55.64,-38.95
7.718286514282227,-0.936,-0.175,0.261,44.739,-133.789,-12.695,-31.85,55.98,-39.37
7.772111892700195,-0.905,-0.104,0.334,-7.874,-149.17,-11.414,-32.02,55.67,-40.25
7.772111892700195,-0.871,-0.058,0.436,-1.892,-161.499,-11.475,-32.23,55.83,-40.94
7.772111892700195,-0.871,-0.058,0.436,-1.892,-161.499,-11.475,-32.64,55.73,-40.91
7.772111892700195,-0.855,-0.01,0.528,48.584,-165.405,-9.46,-32.55,55.38,-41.8
7.772111892700195,-0.855,-0.01,0.528,48.584,-165.405,-9.46,-32.55,55.38,-41.8
7.776247024536133,-0.85,0.044,0.611,63.965,-159.302,-13.672,-33.02,55.64,-42.17
7.776247024536133,-0.85,0.044,0.611,63.965,-159.302,-13.672,-33.76,55.8,-42.75
7.776247024536133,-0.823,0.068,0.699,26.367,-153.015,-23.071,-33.76,56.07,-42.72
7.776247024536133,-0.818,0.045,0.777,16.357,-139.709,-33.142,-34.51,56.24,-42.62
7.776247024536133,-0.818,0.045,0.777,16.357,-139.709,-33.142,-34.54,55.76,-43.01
7.8293983936309814,-0.806,0.009,0.838,49.072,-118.103,-39.001,-34.45,55.42,-43.98
7.833437204360962,-0.806,0.009,0.838,49.072,-118.103,-39.001,-34.45,55.42,-43.98
7.833437204360962,-0.789,-0.018,0.876,56.885,-85.022,-44.25,-34.65,55.82,-43.98
7.833437204360962,-0.789,-0.018,0.876,23.437,-50.293,-46.997,-35.22,55.98,-44.24
7.833437204360962,-0.794,-0.047,0.904,23.437,-50.293,-46.997,-35.08,56.26,-44.27
7.833437204360962,-0.789,-0.084,0.917,4.517,-19.287,-48.035,-35.63,56.11,-44.29
7.833437204360962,-0.789,-0.084,0.917,4.517,-19.287,-48.035,-35.63,56.11,-44.29
7.833437204360962,-0.8,-0.092,0.89,14.648,5.92,-49.744,-35.34,55.9,-44.07
7.837517499923706,-0.8,-0.092,0.89,14.648,5.92,-49.744,-35.68,56.33,-44.07
7.837517499923706,-0.821,-0.062,0.836,-0.488,28.198,-52.917,-35.76,56.17,-43.73
7.891073942184448,-0.821,-0.062,0.836,-0.488,28.198,-52.917,-35.78,56.42,-43.83
7.891073942184448,-0.828,-0.052,0.78,-37.354,40.161,-58.167,-36.06,56.96,-43.5
7.891073942184448,-0.828,-0.075,0.708,-35.339,47.546,-61.829,-35.88,56.66,-43.41
7.891073942184448,-0.828,-0.075,0.708,-35.339,47.546,-61.829,-35.88,56.66,-43.41
7.891073942184448,-0.813,-0.094,0.628,-14.587,57.678,-60.425,-35.79,56.62,-44.23
7.895111083984375,-0.813,-0.094,0.628,-14.587,57.678,-60.425,-35.97,57.16,-43.8
7.895111083984375,-0.808,-0.112,0.566,-20.63,59.143,-58.228,-35.91,57.51,-43.88
7.895111083984375,-0.808,-0.112,0.566,-32.654,46.753,-54.504,-35.63,57.54,-42.91
7.895111083984375,-0.806,-0.146,0.51,-32.654,46.753,-54.504,-35.63,57.54,-43.0
7.895111083984375,-0.811,-0.182,0.465,-21.24,35.339,-52.002,-35.74,57.95,-43.0
7.9481518268585205,-0.811,-0.182,0.465,-21.24,35.339,-52.002,-36.22,58.23,-42.88
7.952312707901001,-0.819,-0.215,0.44,-3.906,15.259,-50.72,-36.23,57.88,-42.5
7.952312707901001,-0.819,-0.215,0.44,-3.906,15.259,-50.72,-36.26,57.83,-42.4
7.952312707901001,-0.811,-0.257,0.428,5.615,-7.69,-47.913,-36.41,57.83,-42.82
7.952312707901001,-0.811,-0.257,0.428,5.615,-7.69,-47.913,-36.41,57.83,-42.82
7.952312707901001,-0.792,-0.301,0.427,13.062,-28.442,-42.175,-36.1,57.73,-42.84
7.952312707901001,-0.782,-0.331,0.437,22.766,-44.556,-31.86,-36.9,58.04,-43.32
7.956351041793823,-0.782,-0.331,0.437,22.766,-44.556,-31.86,-36.79,57.8,-43.2
7.956351041793823,-0.793,-0.335,0.467,30.945,-60.852,-17.151,-37.08,57.91,-42.87
7.956351041793823,-0.793,-0.335,0.467,30.945,-60.852,-17.151,-37.64,57.69,-43.41
8.009934425354004,-0.782,-0.321,0.507,38.025,-81.726,-2.136,-37.96,57.63,-44.3
8.009934425354004,-0.782,-0.321,0.507,59.57,-98.083,8.667,-37.96,57.63,-44.3
8.009934425354004,-0.768,-0.295,0.561,59.57,-98.083,8.667,-37.56,57.7,-44.72
8.013973712921143,-0.752,-0.263,0.631,86.792,-112.427,18.066,-37.8,57.64,-44.77
8.013973712921143,-0.752,-0.263,0.631,86.792,-112.427,18.066,-38.21,57.04,-45.85
8.013973712921143,-0.729,-0.249,0.705,100.83,-123.108,22.949,-38.47,56.64,-46.27
8.013973712921143,-0.729,-0.249,0.705,100.83,-123.108,22.949,-38.47,56.64,-46.27
8.013973712921143,-0.697,-0.232,0.781,97.534,-121.46,28.748,-38.64,56.3,-46.81
8.013973712921143,-0.697,-0.232,0.781,97.534,-121.46,28.748,-38.61,56.66,-46.62
8.018056392669678,-0.659,-0.207,0.85,50.171,-117.798,29.968,-39.1,56.64,-47.14
8.070831298828125,-0.663,-0.183,0.904,9.216,-104.614,31.799,-39.26,56.3,-46.96
8.070831298828125,-0.663,-0.183,0.904,9.216,-104.614,31.799,-39.78,56.21,-47.19
8.070831298828125,-0.679,-0.131,0.929,-12.695,-82.825,32.043,-39.33,56.18,-46.78
8.070831298828125,-0.679,-0.131,0.929,-12.695,-82.825,32.043,-39.33,56.18,-46.78
8.070831298828125,-0.659,-0.083,0.924,-26.367,-64.88,23.865,-39.58,56.64,-46.42
8.07487678527832,-0.659,-0.083,0.924,-26.367,-64.88,23.865,-39.43,56.37,-47.15
8.07487678527832,-0.642,-0.047,0.903,3.54,-47.241,17.09,-39.43,56.43,-47.12
8.07487678527832,-0.641,0.005,0.873,36.56,-39.063,4.639,-39.4,56.5,-47.92
8.07487678527832,-0.641,0.005,0.873,36.56,-39.063,4.639,-39.4,56.5,-47.92
8.07487678527832,-0.637,0.026,0.842,82.642,-39.612,-7.751,-39.78,56.28,-48.47
8.128338098526001,-0.637,0.026,0.842,82.642,-39.612,-7.751,-39.68,55.77,-48.17
8.132376670837402,-0.626,0.014,0.83,154.785,-46.997,-15.503,-40.0,55.76,-49.06
8.132376670837402,-0.626,0.014,0.83,154.785,-46.997,-15.503,-39.97,55.38,-49.3
8.132376670837402,-0.638,0.038,0.832,176.819,-55.847,-20.63,-40.13,55.13,-49.63
8.132376670837402,-0.692,0.056,0.845,114.319,-55.237,-24.902,-40.13,54.76,-50.15
8.132376670837402,-0.692,0.056,0.845,114.319,-55.237,-24.902,-40.13,54.76,-50.15
8.132376670837402,-0.697,0.045,0.881,77.393,-48.34,-23.682,-40.15,54.84,-50.38
8.132376670837402,-0.697,0.045,0.881,77.393,-48.34,-23.682,-40.65,54.52,-50.7
8.136415481567383,-0.671,0.075,0.905,85.51,-36.987,-22.4,-40.63,54.25,-51.11
8.136415481567383,-0.671,0.075,0.905,85.51,-36.987,-22.4,-40.56,54.19,-50.58
8.189960479736328,-0.685,0.147,0.913,58.289,-27.466,-24.414,-40.82,54.12,-50.6
8.189960479736328,-0.688,0.163,0.937,17.456,-19.104,-35.522,-40.82,54.46,-50.82
8.189960479736328,-0.688,0.163,0.937,17.456,-19.104,-35.522,-41.29,54.46,-50.82
8.189960479736328,-0.657,0.109,0.981,42.175,-1.953,-47.729,-41.55,54.14,-51.29
8.189960479736328,-0.657,0.109,0.981,42.175,-1.953,-47.729,-40.84,53.9,-51.84
8.189960479736328,-0.643,0.048,1.012,95.581,17.395,-55.786,-41.44,54.4,-51.26
8.193999290466309,-0.643,0.048,1.012,95.581,17.395,-55.786,-41.44,54.4,-51.26
8.193999290466309,-0.64,0.015,1.016,90.637,46.692,-60.242,-41.1,53.79,-51.3
8.193999290466309,-0.625,0.005,0.989,16.846,81.36,-61.279,-40.97,54.57,-51.13
8.193999290466309,2.867,1.616,2.871,1.605,0.0,0.0,-40.66,54.18,-51.53
8.247167110443115,-0.609,-0.043,0.944,-4.578,114.075,-70.068,-40.51,54.14,-51.52
8.247167110443115,-0.609,-0.043,0.944,-4.578,114.075,-70.068,-40.79,53.58,-51.07
8.247167110443115,-0.624,-0.086,0.898,95.886,132.629,-68.176,-40.57,53.13,-51.68
8.247167110443115,-0.624,-0.086,0.898,133.484,136.047,-62.5,-40.57,53.13,-51.68
8.247167110443115,-0.652,-0.052,0.825,133.484,136.047,-62.5,-39.99,53.1,-51.59
8.247167110443115,-0.673,-0.021,0.753,58.167,136.292,-61.646,-39.9,53.3,-51.52
8.25119924545288,-0.673,-0.021,0.753,58.167,136.292,-61.646,-39.81,53.23,-51.17
8.25119924545288,-0.634,-0.045,0.75,71.472,105.835,-56.03,-39.81,52.84,-51.32
8.25119924545288,-0.634,-0.045,0.75,71.472,105.835,-56.03,-39.81,52.84,-51.32
8.25119924545288,-0.614,-0.0,0.709,266.785,95.764,-61.34,-39.27,51.96,-51.56
8.303212642669678,-0.614,-0.0,0.709,266.785,95.764,-61.34,-38.97,51.17,-51.96
8.30421257019043,-0.692,0.109,0.633,271.24,104.553,-81.848,-38.98,50.95,-52.09
8.30421257019043,-0.748,0.06,0.639,81.482,113.22,-97.961,-38.94,51.08,-51.77
8.30421257019043,-0.748,0.06,0.639,81.482,113.22,-97.961,-38.78,51.1,-51.8
8.30421257019043,-0.76,-0.117,0.66,75.134,128.113,-90.393,-38.16,50.8,-51.74
8.30421257019043,-0.76,-0.117,0.66,75.134,128.113,-90.393,-38.16,50.8,-51.74
8.30421257019043,-0.751,-0.21,0.635,163.452,139.221,-75.684,-37.84,50.63,-52.06
8.30845022201538,-0.751,-0.21,0.635,163.452,139.221,-75.684,-37.68,50.18,-51.72
8.30845022201538,-0.755,-0.238,0.6,107.422,152.1,-63.782,-37.43,50.25,-51.29
8.30845022201538,-0.799,-0.288,0.577,-21.973,156.799,-37.415,-37.36,50.51,-51.26
8.361148357391357,-0.799,-0.288,0.577,-21.973,156.799,-37.415,-37.36,50.92,-50.51
8.361148357391357,-0.839,-0.299,0.537,-55.542,153.137,1.892,-36.54,50.79,-50.45
8.363152980804443,-0.839,-0.299,0.537,-55.542,153.137,1.892,-36.54,50.79,-50.45
8.363152980804443,-0.834,-0.198,0.476,-20.386,141.907,34.302,-35.95,50.48,-50.15
8.363152980804443,-0.834,-0.198,0.476,-23.56,124.207,47.974,-35.21,50.82,-49.42
8.365156173706055,-0.813,-0.042,0.424,-23.56,124.207,47.974,-35.09,50.98,-49.37
8.365156173706055,-0.789,0.067,0.408,-48.889,105.469,45.898,-34.77,51.17,-48.23
8.365156173706055,-0.789,0.067,0.408,-48.889,105.469,45.898,-34.77,51.17,-48.23
8.36715841293335,-0.795,0.101,0.439,-26.672,87.341,37.292,-34.05,50.64,-48.55
8.36715841293335,-0.795,0.101,0.439,-26.672,87.341,37.292,-34.03,50.72,-48.47
8.414197206497192,-0.8,0.083,0.5,57.251,78.735,25.513,-34.0,50.12,-48.17
8.41820764541626,-0.8,0.083,0.5,57.251,78.735,25.513,-33.62,50.13,-48.45
8.41820764541626,-0.765,0.035,0.565,124.939,81.177,14.404,-33.48,50.15,-48.3
8.419497966766357,-0.723,-0.036,0.636,123.474,95.642,6.165,-33.48,50.15,-48.76
8.419497966766357,-0.723,-0.036,0.636,123.474,95.642,6.165,-33.31,49.39,-48.76
8.419497966766357,-0.694,-0.12,0.71,113.281,118.713,5.066,-33.22,49.21,-48.3
8.419497966766357,-0.694,-0.12,0.71,113.281,118.713,5.066,-32.87,49.06,-47.92
8.419497966766357,-0.71,-0.151,0.761,134.766,148.315,16.235,-32.27,48.6,-47.63
8.422504901885986,-0.71,-0.151,0.761,134.766,148.315,16.235,-32.27,48.6,-47.63
8.422504901885986,-0.777,-0.06,0.762,114.075,183.105,35.95,-31.57,48.22,-47.73
8.475414037704468,-0.777,-0.06,0.762,8.362,222.534,48.401,-30.81,48.36,-47.03
8.475414037704468,-0.803,0.102,0.721,8.362,222.534,48.401,-30.71,48.07,-45.63
8.475414037704468,-0.762,0.237,0.665,-69.275,265.015,48.889,-29.95,48.3,-45.35
8.475414037704468,2.867,1.616,2.871,1.605,0.0,0.0,-29.95,48.3,-45.35
8.475414037704468,-0.706,0.328,0.606,-58.411,310.059,38.086,-29.22,48.09,-42.68
8.47945261001587,-0.706,0.328,0.606,-58.411,310.059,38.086,-28.68,48.36,-42.68
8.47945261001587,-0.642,0.389,0.524,-46.997,355.713,18.616,-27.92,47.9,-41.63
8.47945261001587,-0.642,0.389,0.524,-46.997,355.713,18.616,-27.51,48.7,-39.74
8.47945261001587,-0.6,0.412,0.426,-84.229,402.466,-5.798,-27.04,48.82,-38.16
8.47945261001587,-0.59,0.389,0.317,-113.708,443.665,-25.208,-26.69,49.27,-36.47
8.528672456741333,-0.59,0.389,0.317,-113.708,443.665,-25.208,-26.69,49.27,-36.47
8.528672456741333,-0.575,0.344,0.182,-104.187,477.722,-35.828,-25.83,49.5,-34.54
8.532710552215576,-0.575,0.344,0.182,-104.187,477.722,-35.828,-26.0,49.66,-33.16
8.532710552215576,-0.554,0.319,0.021,-81.421,507.69,-40.222,-25.62,50.26,-30.75
8.534120321273804,-0.554,0.319,0.021,-60.852,536.56,-43.457,-25.93,50.15,-28.9
8.534120321273804,-0.519,0.307,-0.161,-60.852,536.56,-43.457,-26.32,50.41,-27.16
8.534120321273804,-0.519,0.307,-0.161,-26.062,561.523,-44.434,-26.32,50.41,-27.16
8.534120321273804,-0.466,0.289,-0.318,-26.062,561.523,-44.434,-26.15,50.57,-25.37
8.537150144577026,-0.407,0.279,-0.5,9.399,569.092,-43.762,-26.32,51.4,-22.58
8.537150144577026,-0.407,0.279,-0.5,9.399,569.092,-43.762,-27.04,51.18,-20.94
8.586340188980103,-0.355,0.297,-0.705,18.921,586.853,-43.152,-27.7,51.59,-19.29
8.586340188980103,-0.355,0.297,-0.705,18.921,586.853,-43.152,-27.7,51.59,-19.29
8.586340188980103,-0.286,0.333,-0.892,19.409,587.952,-36.499,-28.72,52.06,-17.92
8.586340188980103,-0.286,0.333,-0.892,19.409,587.952,-36.499,-29.8,52.28,-16.09
8.59042239189148,-0.163,0.351,-1.071,39.856,578.247,-39.246,-31.09,52.46,-15.17
8.59042239189148,-0.001,0.341,-1.219,58.838,555.176,-54.871,-31.98,52.97,-13.83
8.59042239189148,-0.001,0.341,-1.219,58.838,555.176,-54.871,-31.98,52.97,-12.55
8.59042239189148,0.134,0.307,-1.353,48.462,522.583,-78.491,-36.89,53.73,-12.04
8.59042239189148,0.134,0.307,-1.353,48.462,522.583,-78.491,-34.35,53.73,-12.04
8.59042239189148,0.21,0.261,-1.461,21.79,477.966,-103.821,-35.38,54.22,-11.14
8.65191102027893,0.21,0.261,-1.461,21.79,477.966,-103.821,-36.66,54.38,-10.57
8.65191102027893,0.197,0.208,-1.538,20.386,418.152,-126.038,-38.23,54.91,-10.06
8.653188705444336,0.16,0.138,-1.581,50.354,331.787,-148.01,-39.43,55.52,-9.94
8.653188705444336,0.16,0.138,-1.581,50.354,331.787,-148.01,-39.43,55.52,-9.94
8.653188705444336,0.171,0.035,-1.606,56.03,234.558,-169.922,-40.49,55.93,-9.63
8.653188705444336,0.171,0.035,-1.606,56.03,234.558,-169.922,-41.16,56.07,-9.72
8.653188705444336,0.166,-0.09,-1.587,4.028,146.362,-190.369,-41.98,56.21,-9.28
8.656194925308228,0.166,-0.09,-1.587,-53.589,60.974,-193.542,-42.68,56.27,-8.68
8.656194925308228,0.14,-0.219,-1.514,-53.589,60.974,-193.542,-43.34,56.23,-8.48
8.656194925308228,0.079,-0.345,-1.416,-55.298,-6.958,-173.828,-43.34,56.23,-8.48
8.7108473777771,0.079,-0.345,-1.416,-55.298,-6.958,-173.828,-43.61,55.95,-8.99
8.7108473777771,-0.01,-0.447,-1.299,-7.141,-55.603,-131.409,-43.69,56.39,-9.02
8.7108473777771,-0.01,-0.447,-1.299,-7.141,-55.603,-131.409,-43.76,56.8,-9.22
8.7108473777771,-0.06,-0.511,-1.167,40.771,-87.585,-73.975,-43.98,56.9,-9.46
8.71388840675354,-0.06,-0.511,-1.167,40.771,-87.585,-73.975,-43.98,56.9,-9.46
8.71388840675354,-0.102,-0.522,-1.041,64.636,-103.149,-14.099,-43.67,56.43,-10.6
8.71388840675354,-0.184,-0.464,-0.94,75.989,-102.905,39.429,-42.9,56.94,-10.6
8.71388840675354,-0.184,-0.464,-0.94,75.989,-102.905,39.429,-42.53,56.65,-10.68
8.71388840675354,-0.231,-0.349,-0.855,100.464,-90.942,80.566,-42.52,57.38,-11.37
8.71388840675354,-0.231,-0.349,-0.855,100.464,-90.942,80.566,-41.79,57.35,-11.84
8.767273664474487,-0.258,-0.201,-0.794,117.554,-68.542,101.013,-41.3,57.34,-11.94
8.767273664474487,-0.258,-0.201,-0.794,91.37,-38.391,101.44,-41.3,57.34,-12.15
8.767273664474487,-0.297,-0.049,-0.752,91.37,-38.391,101.44,-41.0,57.73,-12.15
8.767273664474487,-0.314,0.074,-0.724,52.49,-9.399,83.069,-41.17,57.42,-12.32
8.771870613098145,-0.314,0.074,-0.724,52.49,-9.399,83.069,-40.51,57.18,-11.68
8.771870613098145,-0.323,0.158,-0.709,34.973,21.545,52.673,-40.59,57.56,-11.81
8.771870613098145,-0.323,0.158,-0.709,34.973,21.545,52.673,-40.59,57.56,-11.81
8.771870613098145,-0.31,0.19,-0.693,28.442,49.072,16.968,-41.11,57.69,-12.2
8.771870613098145,-0.31,0.19,-0.693,28.442,49.072,16.968,-40.82,57.91,-12.26
8.771870613098145,-0.29,0.163,-0.686,4.089,72.021,-20.691,-41.67,57.78,-11.75
8.825396537780762,-0.269,0.098,-0.697,-36.621,95.703,-51.697,-42.15,57.78,-11.44
8.825396537780762,-0.269,0.098,-0.697,-36.621,95.703,-51.697,-42.37,57.98,-10.95
8.825396537780762,-0.229,0.024,-0.725,-54.81,120.483,-68.42,-42.71,57.79,-11.22
8.829474925994873,-0.229,0.024,-0.725,-54.81,120.483,-68.42,-42.71,57.79,-11.22
8.829474925994873,-0.184,-0.034,-0.772,-37.781,141.968,-71.899,-43.31,57.72,-11.12
8.829474925994873,-0.184,-0.034,-0.772,-37.781,141.968,-71.899,-43.86,57.8,-10.73
8.829474925994873,-0.14,-0.068,-0.843,-14.954,157.715,-69.214,-44.43,57.79,-10.39
8.829474925994873,-0.098,-0.085,-0.925,-9.216,169.312,-67.2,-44.87,57.91,-10.0
8.829474925994873,-0.098,-0.085,-0.925,-9.216,169.312,-67.2,-48.61,57.76,-10.63
8.83351182937622,-0.053,-0.087,-0.998,-13.245,170.288,-65.735,-46.39,58.14,-10.41
8.884175777435303,-0.053,-0.087,-0.998,-13.245,170.288,-65.735,-46.39,58.14,-10.41
8.884175777435303,-0.017,-0.085,-1.061,-2.014,160.645,-61.584,-46.86,57.92,-10.79
8.884175777435303,-0.017,-0.085,-1.061,25.33,146.423,-58.594,-47.3,57.97,-10.9
